time,seconds_elapsed,z,y,x
1740033505247786800,0.012786865234375,-0.9856109619140625,-0.1710662841796875,0.1667022705078125
1740033505257825500,0.022825439453125,-0.98529052734375,-0.171783447265625,0.168792724609375
1740033505267865600,0.032865478515625,-0.993377685546875,-0.1714324951171875,0.1723785400390625
1740033505277904600,0.042904541015625,-0.9906768798828125,-0.16937255859375,0.1747283935546875
1740033505287944000,0.05294384765625,-0.9810791015625,-0.171051025390625,0.1760406494140625
1740033505297983000,0.06298291015625,-0.9728240966796875,-0.17279052734375,0.176605224609375
1740033505308021800,0.073021728515625,-0.977630615234375,-0.1729278564453125,0.18048095703125
1740033505318060800,0.083060791015625,-0.984344482421875,-0.1698760986328125,0.17803955078125
1740033505328099800,0.093099853515625,-0.98291015625,-0.1738433837890625,0.1747894287109375
1740033505338139600,0.1031396484375,-0.9755096435546875,-0.1751708984375,0.174560546875
1740033505348179000,0.113178955078125,-0.963836669921875,-0.1757659912109375,0.174285888671875
1740033505358217700,0.1232177734375,-0.951019287109375,-0.1772003173828125,0.1728668212890625
1740033505368256800,0.1332568359375,-0.9514007568359375,-0.174835205078125,0.17181396484375
1740033505378295800,0.1432958984375,-0.9597015380859375,-0.170684814453125,0.172393798828125
1740033505388334800,0.1533349609375,-0.9637908935546875,-0.1664276123046875,0.1766204833984375
1740033505398375000,0.163375,-0.9632415771484375,-0.168121337890625,0.1765899658203125
1740033505408414000,0.1734140625,-0.9640045166015625,-0.171478271484375,0.16986083984375
1740033505418452700,0.18345263671875,-0.975372314453125,-0.1724700927734375,0.172119140625
1740033505428491800,0.19349169921875,-0.993621826171875,-0.1702880859375,0.167999267578125
1740033505438530800,0.20353076171875,-0.9955291748046875,-0.1677398681640625,0.164825439453125
1740033505448569900,0.21356982421875,-0.9887847900390625,-0.1701202392578125,0.1652374267578125
1740033505458609000,0.22360888671875,-0.97833251953125,-0.1746063232421875,0.1670379638671875
1740033505468649000,0.23364892578125,-0.9687652587890625,-0.177215576171875,0.17010498046875
1740033505478687700,0.243687744140625,-0.959442138671875,-0.1772613525390625,0.1761016845703125
1740033505488726800,0.253726806640625,-0.950439453125,-0.17510986328125,0.173828125
1740033505498765800,0.263765869140625,-0.939849853515625,-0.175262451171875,0.1741485595703125
1740033505508804900,0.273804931640625,-0.9324798583984375,-0.1794281005859375,0.1815185546875
1740033505518844000,0.283843994140625,-0.9334869384765625,-0.1781158447265625,0.1824798583984375
1740033505528882700,0.293882568359375,-0.9431915283203125,-0.177032470703125,0.1828460693359375
1740033505538922800,0.3039228515625,-0.955902099609375,-0.17620849609375,0.1793060302734375
1740033505548961800,0.3139619140625,-0.9700927734375,-0.1761627197265625,0.16949462890625
1740033505559000800,0.324000732421875,-0.9751129150390625,-0.1760406494140625,0.1641998291015625
1740033505569040000,0.334039794921875,-0.9683685302734375,-0.1781158447265625,0.16693115234375
1740033505579079000,0.344078857421875,-0.9544525146484375,-0.178955078125,0.1708221435546875
1740033505589117700,0.35411767578125,-0.94683837890625,-0.1778106689453125,0.174713134765625
1740033505599157800,0.36415771484375,-0.9549713134765625,-0.1753692626953125,0.1817779541015625
1740033505609196800,0.37419677734375,-0.969573974609375,-0.1693878173828125,0.1815338134765625
1740033505619235800,0.38423583984375,-0.98529052734375,-0.1679840087890625,0.1777801513671875
1740033505629275000,0.39427490234375,-1.0011749267578125,-0.1669769287109375,0.171142578125
1740033505639313700,0.404313720703125,-0.998016357421875,-0.1680450439453125,0.170654296875
1740033505649352700,0.414352783203125,-0.9801025390625,-0.170623779296875,0.174652099609375
1740033505659392000,0.42439208984375,-0.96221923828125,-0.1741943359375,0.1772918701171875
1740033505669431800,0.434431884765625,-0.9509429931640625,-0.176055908203125,0.1770172119140625
1740033505679470800,0.444470947265625,-0.951995849609375,-0.178955078125,0.177764892578125
1740033505689510000,0.454510009765625,-0.963897705078125,-0.1762542724609375,0.175445556640625
1740033505699548700,0.464548583984375,-0.9648284912109375,-0.1728668212890625,0.1822967529296875
1740033505709587700,0.474587646484375,-0.97039794921875,-0.17236328125,0.181243896484375
1740033505719627000,0.484626953125,-0.95941162109375,-0.1729736328125,0.171722412109375
1740033505729666800,0.494666748046875,-0.949737548828125,-0.1764984130859375,0.1738433837890625
1740033505739705900,0.504705810546875,-0.9458770751953125,-0.1779327392578125,0.1790771484375
1740033505749745000,0.514744873046875,-0.953765869140625,-0.1748199462890625,0.1756744384765625
1740033505759783700,0.52478369140625,-0.9750213623046875,-0.1699676513671875,0.1734466552734375
1740033505769822700,0.53482275390625,-0.98388671875,-0.1683502197265625,0.1716461181640625
1740033505779862000,0.544862060546875,-0.974884033203125,-0.1698455810546875,0.1739654541015625
1740033505789900800,0.55490087890625,-0.958221435546875,-0.1738128662109375,0.17669677734375
1740033505799940900,0.56494091796875,-0.945709228515625,-0.181854248046875,0.1742706298828125
1740033505809980000,0.57497998046875,-0.950653076171875,-0.184814453125,0.1681976318359375
1740033505820018700,0.585018798828125,-0.9843292236328125,-0.179290771484375,0.1610107421875
1740033505830058000,0.59505810546875,-1.014068603515625,-0.167877197265625,0.157196044921875
1740033505840096800,0.6050966796875,-1.019805908203125,-0.1625518798828125,0.1609344482421875
1740033505850135800,0.6151357421875,-1.0019683837890625,-0.16241455078125,0.1738433837890625
1740033505860176000,0.62517578125,-0.970001220703125,-0.17022705078125,0.1851959228515625
1740033505870214700,0.635214599609375,-0.943939208984375,-0.1799468994140625,0.1891021728515625
1740033505880253700,0.645253662109375,-0.9291534423828125,-0.1835479736328125,0.1921234130859375
1740033505890293000,0.65529296875,-0.9252471923828125,-0.1842193603515625,0.194854736328125
1740033505900331800,0.665331787109375,-0.9271392822265625,-0.1891632080078125,0.1962432861328125
1740033505910370800,0.675370849609375,-0.9368896484375,-0.1902008056640625,0.1959381103515625
1740033505920411000,0.685410888671875,-0.9337615966796875,-0.194580078125,0.195770263671875
1740033505930449700,0.69544970703125,-0.9271087646484375,-0.1953125,0.199371337890625
1740033505940488700,0.70548876953125,-0.9346771240234375,-0.1928253173828125,0.1964569091796875
1740033505950528000,0.715528076171875,-0.9617156982421875,-0.1921234130859375,0.1851348876953125
1740033505960566800,0.72556689453125,-0.9796295166015625,-0.1930694580078125,0.1833648681640625
1740033505970605800,0.735605712890625,-0.9847564697265625,-0.19366455078125,0.1864166259765625
1740033505980644600,0.74564453125,-0.9816131591796875,-0.1967620849609375,0.18695068359375
1740033505990684700,0.7556845703125,-0.976165771484375,-0.2005462646484375,0.1860504150390625
1740033506000723700,0.7657236328125,-0.9676513671875,-0.194000244140625,0.1993865966796875
1740033506010763000,0.775762939453125,-0.98626708984375,-0.2094573974609375,0.1984405517578125
1740033506020801800,0.7858017578125,-1.00677490234375,-0.204132080078125,0.19903564453125
1740033506030840800,0.7958408203125,-1.0058135986328125,-0.1962432861328125,0.2069244384765625
1740033506040879600,0.805879638671875,-0.982330322265625,-0.20159912109375,0.2082366943359375
1740033506050919700,0.815919677734375,-0.9565887451171875,-0.21270751953125,0.21343994140625
1740033506060959000,0.825958984375,-0.93646240234375,-0.2188720703125,0.217193603515625
1740033506070997800,0.835997802734375,-0.9246063232421875,-0.2228546142578125,0.2158660888671875
1740033506081036800,0.846036865234375,-0.92095947265625,-0.225189208984375,0.22076416015625
1740033506091075800,0.856075927734375,-0.9432373046875,-0.232818603515625,0.2150115966796875
1740033506101114600,0.866114501953125,-0.98992919921875,-0.2371063232421875,0.1922760009765625
1740033506111154000,0.87615380859375,-0.991973876953125,-0.2313385009765625,0.201385498046875
1740033506121194000,0.886194091796875,-0.9566802978515625,-0.225341796875,0.21588134765625
1740033506131232800,0.896232666015625,-0.9279632568359375,-0.2303314208984375,0.2271881103515625
1740033506141271800,0.906271728515625,-0.902374267578125,-0.244354248046875,0.2265625
1740033506151310800,0.916310791015625,-0.8755035400390625,-0.2476654052734375,0.2260589599609375
1740033506161350000,0.926349853515625,-0.855316162109375,-0.254058837890625,0.227752685546875
1740033506171389000,0.936388916015625,-0.8497314453125,-0.2568511962890625,0.2323760986328125
1740033506181429000,0.946428955078125,-0.8512725830078125,-0.249237060546875,0.241607666015625
1740033506191467800,0.9564677734375,-0.865081787109375,-0.2450408935546875,0.2490386962890625
1740033506201506800,0.9665068359375,-0.9146728515625,-0.2398681640625,0.2429046630859375
1740033506211545600,0.976545654296875,-0.9568939208984375,-0.2303314208984375,0.2371673583984375
1740033506221585000,0.9865849609375,-0.9692230224609375,-0.2281036376953125,0.229217529296875
1740033506231624000,0.9966240234375,-0.96661376953125,-0.2303924560546875,0.227996826171875
1740033506241664000,1.0066640625,-0.952423095703125,-0.2271270751953125,0.2352142333984375
1740033506251702800,1.016702880859375,-0.9514312744140625,-0.2235870361328125,0.2352447509765625
1740033506261741800,1.026741943359375,-0.976470947265625,-0.2334442138671875,0.224212646484375
1740033506271780600,1.036780517578125,-1.0020599365234375,-0.2410430908203125,0.218170166015625
1740033506281819400,1.0468193359375,-1.0209808349609375,-0.2444610595703125,0.2180938720703125
1740033506291858400,1.0568583984375,-0.995697021484375,-0.260772705078125,0.2182769775390625
1740033506301897500,1.0668974609375,-0.9607391357421875,-0.25628662109375,0.23077392578125
1740033506311937300,1.076937255859375,-0.9437103271484375,-0.2443389892578125,0.2424163818359375
1740033506321976300,1.086976318359375,-0.959930419921875,-0.2340240478515625,0.2503204345703125
1740033506332015600,1.097015625,-0.970367431640625,-0.2234954833984375,0.2656707763671875
1740033506342054400,1.107054443359375,-0.97113037109375,-0.2191619873046875,0.269134521484375
1740033506352093400,1.117093505859375,-0.9564666748046875,-0.2264251708984375,0.251861572265625
1740033506362132500,1.127132568359375,-0.9305572509765625,-0.23382568359375,0.2588958740234375
1740033506372172300,1.13717236328125,-0.910064697265625,-0.24578857421875,0.270172119140625
1740033506382211300,1.14721142578125,-0.895538330078125,-0.252777099609375,0.2704620361328125
1740033506392250600,1.157250732421875,-0.887603759765625,-0.2647705078125,0.268280029296875
1740033506402289400,1.167289306640625,-0.883697509765625,-0.264251708984375,0.265777587890625
1740033506412328400,1.177328369140625,-0.8797760009765625,-0.2755584716796875,0.26593017578125
1740033506422367200,1.1873671875,-0.92193603515625,-0.2638092041015625,0.254180908203125
1740033506432407300,1.1974072265625,-0.97344970703125,-0.2465972900390625,0.234832763671875
1740033506442446600,1.207446533203125,-0.9783477783203125,-0.25494384765625,0.2390899658203125
1740033506452485400,1.2174853515625,-0.94927978515625,-0.294403076171875,0.2400054931640625
1740033506462524400,1.2275244140625,-0.9050750732421875,-0.3365020751953125,0.258087158203125
1740033506472563500,1.2375634765625,-0.8675689697265625,-0.3543548583984375,0.27557373046875
1740033506482602200,1.247602294921875,-0.8411865234375,-0.3560791015625,0.2923126220703125
1740033506492642300,1.257642333984375,-0.828765869140625,-0.3616180419921875,0.2960662841796875
1740033506502681600,1.267681640625,-0.8123779296875,-0.361907958984375,0.30047607421875
1740033506512720400,1.277720458984375,-0.8037872314453125,-0.3595428466796875,0.32110595703125
1740033506522759400,1.287759521484375,-0.8111572265625,-0.34130859375,0.3335418701171875
1740033506532798500,1.297798583984375,-0.832366943359375,-0.3089599609375,0.326995849609375
1740033506542837500,1.30783740234375,-0.905670166015625,-0.2792205810546875,0.329193115234375
1740033506552876500,1.31787646484375,-0.9719696044921875,-0.252471923828125,0.3422698974609375
1740033506562916600,1.32791650390625,-0.9629974365234375,-0.257354736328125,0.338287353515625
1740033506572955400,1.337955322265625,-0.9415283203125,-0.3013458251953125,0.3356170654296875
1740033506582994400,1.347994384765625,-0.877777099609375,-0.3291473388671875,0.32171630859375
1740033506593033500,1.358033447265625,-0.8359832763671875,-0.345001220703125,0.327911376953125
1740033506603072500,1.368072509765625,-0.8018341064453125,-0.350494384765625,0.346405029296875
1740033506613111600,1.378111572265625,-0.79119873046875,-0.3495941162109375,0.3578033447265625
1740033506623151600,1.388151611328125,-0.7929840087890625,-0.339752197265625,0.371368408203125
1740033506633190400,1.3981904296875,-0.792266845703125,-0.326141357421875,0.37451171875
1740033506643229400,1.4082294921875,-0.8114013671875,-0.3144683837890625,0.369964599609375
1740033506653268200,1.418268310546875,-0.864501953125,-0.3127899169921875,0.37689208984375
1740033506663307500,1.4283076171875,-0.9737548828125,-0.3073883056640625,0.362457275390625
1740033506673346600,1.4383466796875,-1.0876922607421875,-0.2769927978515625,0.3126068115234375
1740033506683386400,1.448386474609375,-1.0718536376953125,-0.250946044921875,0.2902984619140625
1740033506693425400,1.45842529296875,-0.9816436767578125,-0.2761688232421875,0.31304931640625
1740033506703464400,1.46846435546875,-0.906524658203125,-0.3126068115234375,0.32244873046875
1740033506713503500,1.47850341796875,-0.8621368408203125,-0.3246307373046875,0.352264404296875
1740033506723542500,1.48854248046875,-0.8307037353515625,-0.3342437744140625,0.4010009765625
1740033506733581600,1.49858154296875,-0.822967529296875,-0.3311614990234375,0.44354248046875
1740033506743621400,1.508621337890625,-0.833526611328125,-0.3179931640625,0.4471893310546875
1740033506753660400,1.518660400390625,-0.860076904296875,-0.3100128173828125,0.446258544921875
1740033506763699500,1.528699462890625,-0.845733642578125,-0.292388916015625,0.454132080078125
1740033506773738500,1.538738525390625,-0.8111572265625,-0.2749481201171875,0.4460601806640625
1740033506783777500,1.548777587890625,-0.7968597412109375,-0.2806396484375,0.440460205078125
1740033506793816300,1.55881640625,-0.8006134033203125,-0.2972869873046875,0.432586669921875
1740033506803856400,1.5688564453125,-0.80047607421875,-0.3033599853515625,0.4196624755859375
1740033506813895400,1.5788955078125,-0.794769287109375,-0.309967041015625,0.411224365234375
1740033506823934500,1.5889345703125,-0.7856903076171875,-0.3098297119140625,0.4083251953125
1740033506833973500,1.598973388671875,-0.7693023681640625,-0.30902099609375,0.4066009521484375
1740033506844012500,1.609012451171875,-0.7682647705078125,-0.296661376953125,0.406158447265625
1740033506854051300,1.61905126953125,-0.8071746826171875,-0.2631988525390625,0.41180419921875
1740033506864091400,1.62909130859375,-0.8626708984375,-0.209686279296875,0.4168548583984375
1740033506874130400,1.63913037109375,-0.8984527587890625,-0.17462158203125,0.434356689453125
1740033506884169200,1.649169189453125,-0.94805908203125,-0.2092742919921875,0.4153594970703125
1740033506894208500,1.65920849609375,-0.9655303955078125,-0.2623748779296875,0.377655029296875
1740033506904247600,1.66924755859375,-0.957611083984375,-0.2919921875,0.35333251953125
1740033506914287400,1.679287353515625,-0.943145751953125,-0.3145294189453125,0.338287353515625
1740033506924326400,1.689326416015625,-0.92529296875,-0.31414794921875,0.34375
1740033506934365400,1.699365478515625,-0.9170074462890625,-0.2961883544921875,0.345672607421875
1740033506944404500,1.709404541015625,-0.903564453125,-0.2863616943359375,0.3418121337890625
1740033506954443500,1.719443603515625,-0.91070556640625,-0.284423828125,0.351226806640625
1740033506964482600,1.729482666015625,-0.9549407958984375,-0.282257080078125,0.3473663330078125
1740033506974522400,1.7395224609375,-0.979888916015625,-0.297149658203125,0.3491363525390625
1740033506984561400,1.7495615234375,-0.976531982421875,-0.2994537353515625,0.35406494140625
1740033506994600400,1.759600341796875,-0.9292755126953125,-0.2847900390625,0.361114501953125
1740033507004639500,1.769639404296875,-0.8686065673828125,-0.2685699462890625,0.3782196044921875
1740033507014678500,1.779678466796875,-0.8452911376953125,-0.2913818359375,0.383544921875
1740033507024717300,1.78971728515625,-0.827972412109375,-0.2988739013671875,0.3811492919921875
1740033507034757400,1.79975732421875,-0.81549072265625,-0.30511474609375,0.3755950927734375
1740033507044796400,1.80979638671875,-0.843963623046875,-0.2856597900390625,0.3834228515625
1740033507054835500,1.81983544921875,-0.8345184326171875,-0.29498291015625,0.351593017578125
1740033507064874500,1.82987451171875,-0.8417205810546875,-0.2981109619140625,0.3486785888671875
1740033507074913500,1.83991357421875,-0.8854217529296875,-0.299591064453125,0.362762451171875
1740033507084952300,1.849952392578125,-0.9210662841796875,-0.3000335693359375,0.3396759033203125
1740033507094992400,1.859992431640625,-0.9329376220703125,-0.3066864013671875,0.327667236328125
1740033507105031400,1.870031494140625,-0.9288787841796875,-0.3349151611328125,0.317901611328125
1740033507115070500,1.880070556640625,-0.9121856689453125,-0.3600311279296875,0.3109893798828125
1740033507125109500,1.890109619140625,-0.89697265625,-0.3688812255859375,0.333343505859375
1740033507135148500,1.9001484375,-0.8874053955078125,-0.34124755859375,0.3654022216796875
1740033507145188400,1.910188232421875,-0.8827972412109375,-0.315155029296875,0.3667144775390625
1740033507155227400,1.920227294921875,-0.8742523193359375,-0.30816650390625,0.352386474609375
1740033507165266400,1.930266357421875,-0.8582763671875,-0.3120269775390625,0.333709716796875
1740033507175305500,1.940305419921875,-0.845367431640625,-0.31903076171875,0.3284912109375
1740033507185344500,1.950344482421875,-0.84869384765625,-0.3194732666015625,0.323822021484375
1740033507195383600,1.960383544921875,-0.8625640869140625,-0.314178466796875,0.3176727294921875
1740033507205423400,1.97042333984375,-0.90008544921875,-0.305328369140625,0.3189849853515625
1740033507215462400,1.98046240234375,-0.924774169921875,-0.3084869384765625,0.3046112060546875
1740033507225501400,1.99050146484375,-0.8963470458984375,-0.303680419921875,0.295318603515625
1740033507235540500,2.00054052734375,-0.85467529296875,-0.29559326171875,0.2974700927734375
1740033507245579500,2.01057958984375,-0.830047607421875,-0.2969970703125,0.28973388671875
1740033507255618300,2.020618408203125,-0.814605712890625,-0.315185546875,0.275787353515625
1740033507265658400,2.030658447265625,-0.772216796875,-0.324737548828125,0.2711334228515625
1740033507275697400,2.040697509765625,-0.7555084228515625,-0.312957763671875,0.295074462890625
1740033507285736700,2.05073681640625,-0.8051300048828125,-0.2917022705078125,0.30194091796875
1740033507295776000,2.06077587890625,-0.8245697021484375,-0.26275634765625,0.289642333984375
1740033507305814800,2.070814697265625,-0.84710693359375,-0.2363739013671875,0.2777862548828125
1740033507315854800,2.080854736328125,-0.87701416015625,-0.2159271240234375,0.2730255126953125
1740033507325894000,2.090893798828125,-0.950103759765625,-0.2354278564453125,0.2394256591796875
1740033507335932700,2.1009326171875,-1.00164794921875,-0.239501953125,0.238311767578125
1740033507345971700,2.1109716796875,-1.01580810546875,-0.2491455078125,0.2767791748046875
1740033507356010800,2.1210107421875,-1.0150909423828125,-0.2592926025390625,0.288543701171875
1740033507366049800,2.1310498046875,-0.985931396484375,-0.2745361328125,0.2811737060546875
1740033507376089900,2.14108984375,-0.9410247802734375,-0.281402587890625,0.2786407470703125
1740033507386128600,2.151128662109375,-0.90765380859375,-0.2918853759765625,0.263153076171875
1740033507396167700,2.161167724609375,-0.8833770751953125,-0.3031768798828125,0.2588653564453125
1740033507406206700,2.171206787109375,-0.889892578125,-0.3125152587890625,0.2467498779296875
1740033507416245800,2.181245849609375,-0.9160919189453125,-0.307647705078125,0.24176025390625
1740033507426285800,2.191285888671875,-0.93450927734375,-0.2994842529296875,0.2573394775390625
1740033507436324900,2.201324951171875,-0.9332122802734375,-0.2936553955078125,0.2542266845703125
1740033507446363600,2.21136376953125,-0.9275054931640625,-0.294952392578125,0.2667388916015625
1740033507456402700,2.221402587890625,-0.9164276123046875,-0.295135498046875,0.2541961669921875
1740033507466442000,2.23144189453125,-0.9278106689453125,-0.302001953125,0.2247467041015625
1740033507476480800,2.241480712890625,-0.9551239013671875,-0.310882568359375,0.2180328369140625
1740033507486520800,2.251520751953125,-0.97125244140625,-0.324462890625,0.2295379638671875
1740033507496559900,2.261559814453125,-0.95977783203125,-0.3267364501953125,0.2492523193359375
1740033507506598700,2.2715986328125,-0.9363250732421875,-0.3018341064453125,0.2501373291015625
1740033507516637700,2.2816376953125,-0.9332122802734375,-0.2789306640625,0.2527618408203125
1740033507526677000,2.291677001953125,-0.952728271484375,-0.29052734375,0.2414398193359375
1740033507536716800,2.301716796875,-0.9762725830078125,-0.30206298828125,0.2222442626953125
1740033507546755800,2.311755859375,-0.9580078125,-0.304595947265625,0.2664794921875
1740033507556795000,2.321794921875,-0.8885345458984375,-0.2965850830078125,0.30780029296875
1740033507566833700,2.331833740234375,-0.846923828125,-0.2503814697265625,0.308929443359375
1740033507576872700,2.341872802734375,-0.8734130859375,-0.2232666015625,0.2533111572265625
1740033507586911700,2.351911865234375,-0.8930206298828125,-0.21490478515625,0.179534912109375
1740033507596951800,2.361951904296875,-0.8819122314453125,-0.2157440185546875,0.166595458984375
1740033507606990800,2.371990966796875,-0.8646697998046875,-0.2405242919921875,0.2086639404296875
1740033507617029600,2.382029541015625,-0.91864013671875,-0.1652984619140625,0.2903594970703125
1740033507627068700,2.392068603515625,-1.008819580078125,-0.193328857421875,0.262969970703125
1740033507637108000,2.40210791015625,-1.03564453125,-0.220733642578125,0.24517822265625
1740033507647147800,2.412147705078125,-0.987213134765625,-0.1708221435546875,0.242034912109375
1740033507657186800,2.422186767578125,-0.966339111328125,-0.0677337646484375,0.231903076171875
1740033507667225900,2.432225830078125,-0.9534149169921875,-0.1970977783203125,0.085479736328125
1740033507677264600,2.4422646484375,-1.0308380126953125,-0.260040283203125,0.1297607421875
1740033507687303700,2.4523037109375,-1.1049957275390625,-0.2554168701171875,0.2189483642578125
1740033507697343700,2.46234375,-1.07659912109375,-0.2417449951171875,0.1989288330078125
1740033507707382800,2.4723828125,-1.0417327880859375,-0.224609375,0.244964599609375
1740033507717421800,2.482421875,-1.006103515625,-0.2105255126953125,0.298675537109375
1740033507727460900,2.4924609375,-0.9870452880859375,-0.20989990234375,0.2909393310546875
1740033507737499600,2.502499755859375,-0.9961090087890625,-0.2183837890625,0.2855224609375
1740033507747538700,2.51253857421875,-0.9242095947265625,-0.24188232421875,0.2496795654296875
1740033507757578800,2.522578857421875,-0.79217529296875,-0.270477294921875,0.1788330078125
1740033507767617800,2.53261767578125,-0.8027191162109375,-0.273406982421875,0.2018890380859375
1740033507777656800,2.54265673828125,-0.87005615234375,-0.2662811279296875,0.21044921875
1740033507787695900,2.55269580078125,-0.9363861083984375,-0.2204437255859375,0.15911865234375
1740033507797734700,2.562734619140625,-1.11529541015625,-0.1820526123046875,0.1099700927734375
1740033507807774700,2.572774658203125,-1.182769775390625,-0.142852783203125,0.1125335693359375
1740033507817813800,2.582813720703125,-1.07098388671875,-0.1399383544921875,0.0895843505859375
1740033507827852800,2.592852783203125,-1.014373779296875,0.023590087890625,0.2470855712890625
1740033507837891800,2.602891845703125,-0.8383026123046875,-0.0711822509765625,0.1337127685546875
1740033507847930600,2.6129306640625,-0.917388916015625,-0.391357421875,-0.149139404296875
1740033507857970700,2.622970703125,-0.992034912109375,-0.4003143310546875,-0.1842193603515625
1740033507868009700,2.633009765625,-0.9743194580078125,-0.3597869873046875,-0.020263671875
1740033507878048800,2.643048828125,-0.8957061767578125,-0.358856201171875,0.215667724609375
1740033507888087800,2.653087890625,-0.7984619140625,-0.3661956787109375,0.3943023681640625
1740033507898126800,2.663126953125,-0.786773681640625,-0.3346099853515625,0.4950408935546875
1740033507908167000,2.6731669921875,-0.7819061279296875,-0.28564453125,0.51312255859375
1740033507918205700,2.683205810546875,-0.7492523193359375,-0.2751922607421875,0.477264404296875
1740033507928244700,2.69324462890625,-0.7014007568359375,-0.33856201171875,0.3554534912109375
1740033507938283800,2.70328369140625,-0.7338714599609375,-0.3629302978515625,0.290283203125
1740033507948322800,2.71332275390625,-0.7625579833984375,-0.309417724609375,0.3123321533203125
1740033507958361900,2.72336181640625,-0.70477294921875,-0.2398529052734375,0.20648193359375
1740033507968401700,2.733401611328125,-0.6502838134765625,-0.1170806884765625,0.181610107421875
1740033507978440700,2.743440673828125,-0.821746826171875,-0.0151824951171875,0.363525390625
1740033507988479700,2.753479736328125,-1.0085601806640625,-0.141082763671875,0.258453369140625
1740033507998518800,2.763518798828125,-1.0383453369140625,-0.2590179443359375,0.103485107421875
1740033508008557800,2.773557861328125,-1.025543212890625,-0.2447662353515625,0.1119842529296875
1740033508018598000,2.783597900390625,-1.089996337890625,-0.195068359375,0.1699066162109375
1740033508028636700,2.79363671875,-1.1290283203125,-0.1617279052734375,0.191131591796875
1740033508038675700,2.80367578125,-1.157745361328125,-0.1370697021484375,0.1572723388671875
1740033508048714800,2.81371484375,-1.14593505859375,-0.1468963623046875,0.0685882568359375
1740033508058753800,2.82375390625,-1.0726165771484375,-0.1753387451171875,0.074493408203125
1740033508068793900,2.8337939453125,-1.0059661865234375,-0.157012939453125,0.14642333984375
1740033508078833000,2.8438330078125,-0.9923553466796875,-0.11834716796875,0.1632080078125
1740033508088871700,2.85387158203125,-1.047271728515625,-0.1009521484375,0.1792449951171875
1740033508098910700,2.86391064453125,-1.081787109375,-0.161651611328125,0.1707763671875
1740033508108949800,2.87394970703125,-1.027191162109375,-0.2873382568359375,0.1202239990234375
1740033508118989800,2.88398974609375,-1.030059814453125,-0.284454345703125,0.1165313720703125
1740033508129028900,2.89402880859375,-0.995330810546875,-0.2202911376953125,0.1477813720703125
1740033508139068000,2.90406787109375,-0.94952392578125,-0.1925201416015625,0.1920013427734375
1740033508149106700,2.914106689453125,-0.8911590576171875,-0.204376220703125,0.210479736328125
1740033508159145700,2.924145751953125,-0.867828369140625,-0.2295684814453125,0.1922760009765625
1740033508169185800,2.934185791015625,-0.9075164794921875,-0.2306976318359375,0.16094970703125
1740033508179224800,2.944224853515625,-0.9633636474609375,-0.2278900146484375,0.1404571533203125
1740033508189264000,2.954263916015625,-0.9718170166015625,-0.2210693359375,0.1602020263671875
1740033508199302700,2.964302734375,-0.953704833984375,-0.2126312255859375,0.1766815185546875
1740033508209341700,2.974341796875,-0.9158782958984375,-0.21710205078125,0.17144775390625
1740033508219381800,2.9843818359375,-0.857635498046875,-0.2354583740234375,0.1734619140625
1740033508229420500,2.994420654296875,-0.8506011962890625,-0.242767333984375,0.172149658203125
1740033508239459800,3.0044599609375,-0.9278717041015625,-0.2584228515625,0.1636962890625
1740033508249499000,3.014498779296875,-1.011016845703125,-0.2676544189453125,0.1433258056640625
1740033508259537700,3.02453759765625,-1.0629425048828125,-0.253662109375,0.12493896484375
1740033508269576700,3.03457666015625,-1.070404052734375,-0.2236480712890625,0.1374664306640625
1740033508279617300,3.0446171875,-1.04510498046875,-0.197601318359375,0.1827545166015625
1740033508289656000,3.054656005859375,-1.0312652587890625,-0.163238525390625,0.20849609375
1740033508299695400,3.0646953125,-1.0162353515625,-0.15460205078125,0.2246551513671875
1740033508309734100,3.074734130859375,-0.97265625,-0.158843994140625,0.243316650390625
1740033508319773200,3.084773193359375,-0.9415435791015625,-0.168731689453125,0.241363525390625
1740033508329813200,3.094813232421875,-0.9057769775390625,-0.18243408203125,0.2461700439453125
1740033508339852000,3.10485205078125,-0.8926849365234375,-0.1826629638671875,0.259674072265625
1740033508349891000,3.11489111328125,-0.911895751953125,-0.179656982421875,0.270965576171875
1740033508359930400,3.124930419921875,-0.9263763427734375,-0.1760406494140625,0.2809906005859375
1740033508369969200,3.13496923828125,-0.9255218505859375,-0.179443359375,0.28192138671875
1740033508380009200,3.14500927734375,-0.8904266357421875,-0.206298828125,0.270355224609375
1740033508390048300,3.15504833984375,-0.83038330078125,-0.234039306640625,0.249114990234375
1740033508400087000,3.165087158203125,-0.79229736328125,-0.2566070556640625,0.2174072265625
1740033508410126300,3.175126220703125,-0.80718994140625,-0.23809814453125,0.22998046875
1740033508420165400,3.185165283203125,-0.852447509765625,-0.1968994140625,0.2451171875
1740033508430205200,3.195205078125,-0.891693115234375,-0.134002685546875,0.2700347900390625
1740033508440244200,3.205244140625,-0.8796539306640625,-0.1150054931640625,0.2736053466796875
1740033508450283300,3.215283203125,-0.8857269287109375,-0.12567138671875,0.2880706787109375
1740033508460322000,3.225322021484375,-0.9161224365234375,-0.1327056884765625,0.2732086181640625
1740033508470361300,3.235361328125,-0.980926513671875,-0.1512298583984375,0.2590789794921875
1740033508480401200,3.245401123046875,-1.0537109375,-0.18731689453125,0.2517242431640625
1740033508490440200,3.255440185546875,-1.0814666748046875,-0.2198028564453125,0.204315185546875
1740033508500479200,3.265479248046875,-1.0582427978515625,-0.2365570068359375,0.165130615234375
1740033508510518000,3.27551806640625,-1.0317230224609375,-0.228668212890625,0.150604248046875
1740033508520557000,3.28555712890625,-1.0173492431640625,-0.206329345703125,0.16204833984375
1740033508530597000,3.29559716796875,-1.00567626953125,-0.200042724609375,0.1817169189453125
1740033508540636400,3.305636474609375,-0.9806671142578125,-0.1946868896484375,0.1987762451171875
1740033508550675200,3.31567529296875,-0.946807861328125,-0.176788330078125,0.22784423828125
1740033508560714200,3.32571435546875,-0.9251861572265625,-0.161773681640625,0.2238006591796875
1740033508570753000,3.3357529296875,-0.9251251220703125,-0.16693115234375,0.22149658203125
1740033508580793000,3.34579296875,-0.9519500732421875,-0.144683837890625,0.251495361328125
1740033508590832000,3.35583203125,-0.9778900146484375,-0.0965576171875,0.2733001708984375
1740033508600871200,3.36587109375,-1.00421142578125,-0.0616302490234375,0.2537841796875
1740033508610910200,3.37591015625,-1.0308837890625,-0.070587158203125,0.22869873046875
1740033508620950300,3.3859501953125,-1.0367279052734375,-0.1389007568359375,0.203643798828125
1740033508630989000,3.395989013671875,-1.0427093505859375,-0.2112884521484375,0.1413116455078125
1740033508641028000,3.406028076171875,-1.0335540771484375,-0.3036651611328125,0.112060546875
1740033508651067100,3.416067138671875,-0.9907073974609375,-0.3637237548828125,0.1271820068359375
1740033508661106200,3.426106201171875,-0.9298095703125,-0.376617431640625,0.13018798828125
1740033508671146200,3.436146240234375,-0.8770904541015625,-0.387542724609375,0.1163482666015625
1740033508681185300,3.446185302734375,-0.8568878173828125,-0.371795654296875,0.1109771728515625
1740033508691224000,3.45622412109375,-0.854888916015625,-0.293243408203125,0.1313934326171875
1740033508701263000,3.46626318359375,-0.89288330078125,-0.1878814697265625,0.1514739990234375
1740033508711302400,3.476302490234375,-0.940826416015625,-0.1578521728515625,0.1858978271484375
1740033508721342200,3.48634228515625,-0.9278411865234375,-0.142547607421875,0.2459716796875
1740033508731381200,3.49638134765625,-0.8830413818359375,-0.15472412109375,0.2490692138671875
1740033508741420300,3.506420166015625,-0.8761444091796875,-0.1548919677734375,0.2406005859375
1740033508751459000,3.516458984375,-0.8821563720703125,-0.0642547607421875,0.2181243896484375
1740033508761498000,3.526498046875,-0.8942413330078125,-0.0120849609375,0.2291412353515625
1740033508771538200,3.5365380859375,-0.9417724609375,0.0276947021484375,0.2698822021484375
1740033508781577200,3.5465771484375,-0.941253662109375,0.012420654296875,0.3125
1740033508791616300,3.5566162109375,-0.891693115234375,-0.04766845703125,0.32916259765625
1740033508801655300,3.5666552734375,-0.8525390625,-0.1091461181640625,0.2859344482421875
1740033508811694000,3.576694091796875,-0.8921661376953125,-0.1417694091796875,0.201324462890625
1740033508821734100,3.586734130859375,-0.9842529296875,-0.1984710693359375,0.13665771484375
1740033508831773200,3.596773193359375,-1.0544281005859375,-0.2462005615234375,0.11163330078125
1740033508841812200,3.606812255859375,-1.0594635009765625,-0.2926788330078125,0.1200408935546875
1740033508851851300,3.616851318359375,-1.0219268798828125,-0.30426025390625,0.1135711669921875
1740033508861890000,3.62689013671875,-1.001708984375,-0.3325653076171875,0.0641632080078125
1740033508871930000,3.63693017578125,-1.0370635986328125,-0.28546142578125,0.0480194091796875
1740033508881969200,3.64696923828125,-1.0673065185546875,-0.23504638671875,0.0381011962890625
1740033508892008200,3.65700830078125,-1.0157470703125,-0.2523193359375,0.10186767578125
1740033508902047200,3.667047119140625,-0.9442596435546875,-0.3046417236328125,0.1675567626953125
1740033508912086300,3.677086181640625,-0.9115142822265625,-0.3209991455078125,0.1956634521484375
1740033508922126300,3.687126220703125,-0.9166412353515625,-0.2598876953125,0.210174560546875
1740033508932165000,3.6971650390625,-0.994537353515625,-0.2373809814453125,0.22698974609375
1740033508942204200,3.7072041015625,-1.1071929931640625,-0.21722412109375,0.3699493408203125
1740033508952243200,3.7172431640625,-1.1522369384765625,-0.0998382568359375,0.57708740234375
1740033508962282200,3.7272822265625,-1.1137237548828125,0.0092620849609375,0.6627960205078125
1740033508972322300,3.737322265625,-0.95965576171875,-0.1746673583984375,0.1905975341796875
1740033508982361000,3.747361083984375,-1.1071929931640625,-0.34619140625,-0.1402130126953125
1740033508992400100,3.757400146484375,-1.38421630859375,-0.401397705078125,-0.1480865478515625
1740033509002439200,3.767439208984375,-1.3419647216796875,-0.28497314453125,-0.0684814453125
1740033509012478200,3.777478271484375,-1.1432342529296875,-0.224334716796875,0.0428924560546875
1740033509022518300,3.787518310546875,-1.0434112548828125,-0.2470550537109375,0.0978546142578125
1740033509032557300,3.797557373046875,-0.928131103515625,-0.2393035888671875,0.182342529296875
1740033509042596000,3.80759619140625,-0.86004638671875,-0.201080322265625,0.3286285400390625
1740033509052635100,3.81763525390625,-0.842437744140625,-0.1733856201171875,0.4235992431640625
1740033509062674200,3.827674072265625,-0.560516357421875,-0.2397918701171875,0.118499755859375
1740033509072714000,3.8377138671875,-0.6318511962890625,-0.135467529296875,0.1403656005859375
1740033509082753300,3.847753173828125,-0.9974822998046875,-0.0621185302734375,0.3850860595703125
1740033509092792300,3.857792236328125,-1.133453369140625,-0.0612030029296875,0.329559326171875
1740033509102831000,3.8678310546875,-1.083038330078125,-0.0431671142578125,0.2473297119140625
1740033509112871200,3.87787109375,-0.8300933837890625,-0.0359954833984375,0.213226318359375
1740033509122910200,3.88791015625,-0.9179840087890625,-0.11572265625,0.10406494140625
1740033509132949000,3.897948974609375,-0.8492431640625,-0.12994384765625,-0.0077972412109375
1740033509142988300,3.90798828125,-0.7623443603515625,-0.0893402099609375,0.0348968505859375
1740033509153027300,3.91802734375,-0.7546234130859375,-0.134521484375,0.04296875
1740033509163067100,3.928067138671875,-0.7848052978515625,-0.1622772216796875,0.0408172607421875
1740033509173106200,3.938106201171875,-0.9438323974609375,-0.047760009765625,0.17486572265625
1740033509183145200,3.948145263671875,-1.034912109375,0.00958251953125,0.2672576904296875
1740033509193184300,3.958184326171875,-0.981597900390625,0.0043182373046875,0.39691162109375
1740033509203223300,3.968223388671875,-1.0505828857421875,-0.128143310546875,0.492919921875
1740033509213263400,3.978263427734375,-0.971038818359375,-0.2121124267578125,0.4901580810546875
1740033509223302100,3.98830224609375,-0.88677978515625,-0.206298828125,0.510284423828125
1740033509233341200,3.998341064453125,-0.849456787109375,-0.24517822265625,0.4421234130859375
1740033509243380200,4.008380126953125,-0.8226318359375,-0.242462158203125,0.3673553466796875
1740033509253419300,4.018419189453125,-0.9402008056640625,-0.261260986328125,0.2521820068359375
1740033509263459300,4.028459228515625,-0.979248046875,-0.1951904296875,0.185546875
1740033509273498400,4.038498291015625,-0.9564361572265625,-0.162445068359375,0.1658782958984375
1740033509283537400,4.048537353515625,-0.9560699462890625,-0.131072998046875,0.1488037109375
1740033509293576200,4.058576171875,-0.9832916259765625,-0.06878662109375,0.1590118408203125
1740033509303615200,4.068615234375,-1.0360260009765625,-0.008209228515625,0.189483642578125
1740033509313655300,4.0786552734375,-1.0366363525390625,0.0076751708984375,0.16009521484375
1740033509323694300,4.0886943359375,-0.980499267578125,0.0563507080078125,0.2325897216796875
1740033509333733400,4.0987333984375,-0.9203643798828125,0.1544189453125,0.2825927734375
1740033509343772200,4.108772216796875,-0.8781585693359375,-0.0465240478515625,0.2259521484375
1740033509353812200,4.118812255859375,-0.925933837890625,-0.0262908935546875,0.3147735595703125
1740033509363851300,4.128851318359375,-0.9873046875,-0.046478271484375,0.2881011962890625
1740033509373890000,4.13889013671875,-0.99163818359375,-0.0266571044921875,0.26556396484375
1740033509383929300,4.148929443359375,-1.0138702392578125,0.006622314453125,0.267578125
1740033509393968400,4.158968505859375,-0.964080810546875,-0.02142333984375,0.2957611083984375
1740033509404008400,4.169008544921875,-0.8067626953125,-0.0380706787109375,0.296783447265625
1740033509414047200,4.179047119140625,-0.7581634521484375,-0.03509521484375,0.24163818359375
1740033509424086300,4.189086181640625,-0.8479156494140625,-0.0085296630859375,0.1900634765625
1740033509434125300,4.199125244140625,-0.9333648681640625,-0.0522308349609375,0.2295989990234375
1740033509444164400,4.209164306640625,-0.9510498046875,-0.1171722412109375,0.275726318359375
1740033509454204400,4.219204345703125,-0.9471435546875,-0.2519378662109375,0.2509765625
1740033509464243200,4.2292431640625,-0.931304931640625,-0.39434814453125,0.2379913330078125
1740033509474282200,4.2392822265625,-0.8897857666015625,-0.444488525390625,0.1960601806640625
1740033509484321300,4.2493212890625,-0.8299560546875,-0.3621826171875,0.1839599609375
1740033509494360300,4.2593603515625,-0.848876953125,-0.23760986328125,0.195556640625
1740033509504400100,4.269400146484375,-0.8901519775390625,-0.1946563720703125,0.23565673828125
1740033509514439400,4.279439453125,-0.8942108154296875,-0.1844329833984375,0.1999664306640625
1740033509524478200,4.289478271484375,-0.9040985107421875,-0.1654052734375,0.16778564453125
1740033509534517200,4.299517333984375,-0.939666748046875,-0.1606903076171875,0.2205963134765625
1740033509544557300,4.309557373046875,-0.9806671142578125,-0.1481781005859375,0.2400970458984375
1740033509554596000,4.31959619140625,-1.0649261474609375,-0.0970458984375,0.2448272705078125
1740033509564635400,4.329635498046875,-1.123443603515625,-0.0631561279296875,0.2091827392578125
1740033509574674400,4.33967431640625,-1.1158599853515625,-0.057220458984375,0.21392822265625
1740033509584713200,4.349713134765625,-1.0561065673828125,-0.0767364501953125,0.263275146484375
1740033509594753300,4.359753173828125,-0.9964141845703125,-0.0355224609375,0.2767791748046875
1740033509604792300,4.369792236328125,-0.9322509765625,-0.2181854248046875,0.289825439453125
1740033509614831000,4.3798310546875,-1.0553131103515625,-0.327880859375,0.2686004638671875
1740033509624870400,4.389870361328125,-0.997161865234375,-0.2935333251953125,0.2188873291015625
1740033509634909400,4.399909423828125,-0.951446533203125,-0.3411407470703125,0.2752227783203125
1740033509644949200,4.40994921875,-0.911956787109375,-0.3310394287109375,0.242431640625
1740033509654988300,4.41998828125,-0.93792724609375,-0.25323486328125,0.20391845703125
1740033509665027300,4.43002734375,-0.971588134765625,-0.177825927734375,0.1949920654296875
1740033509675066000,4.440066162109375,-0.9897918701171875,-0.1815185546875,0.257537841796875
1740033509685105400,4.45010546875,-1.011871337890625,-0.22265625,0.3040008544921875
1740033509695145500,4.4601455078125,-1.0115966796875,-0.215057373046875,0.253082275390625
1740033509705184300,4.470184326171875,-0.9622955322265625,-0.232391357421875,0.2383270263671875
1740033509715223300,4.480223388671875,-0.9231109619140625,-0.2718048095703125,0.24261474609375
1740033509725262000,4.490261962890625,-0.9265899658203125,-0.2812347412109375,0.2294921875
1740033509735302100,4.50030224609375,-0.9871063232421875,-0.203765869140625,0.22723388671875
1740033509745341200,4.510341064453125,-1.0274505615234375,-0.0829925537109375,0.2289886474609375
1740033509755380500,4.52038037109375,-0.8982086181640625,-0.0538482666015625,0.2607574462890625
1740033509765419300,4.530419189453125,-0.8723602294921875,-0.1512451171875,0.272918701171875
1740033509775458300,4.540458251953125,-0.95849609375,-0.146148681640625,0.2693939208984375
1740033509785498400,4.550498291015625,-0.966552734375,-0.197265625,0.2765655517578125
1740033509795537200,4.560537109375,-0.9515533447265625,-0.259368896484375,0.286865234375
1740033509805576400,4.570576416015625,-0.9142303466796875,-0.2724456787109375,0.2750091552734375
1740033509815615200,4.580615234375,-0.8938140869140625,-0.244171142578125,0.2573089599609375
1740033509825654300,4.590654296875,-0.8735809326171875,-0.186248779296875,0.2501220703125
1740033509835694300,4.6006943359375,-0.8468475341796875,-0.172210693359375,0.2682037353515625
1740033509845733000,4.610733154296875,-0.82891845703125,-0.2026214599609375,0.2698211669921875
1740033509855772200,4.620772216796875,-0.85546875,-0.2131500244140625,0.26171875
1740033509865811500,4.6308115234375,-0.9087066650390625,-0.2025909423828125,0.2697296142578125
1740033509875851500,4.6408515625,-0.9574432373046875,-0.2436370849609375,0.29071044921875
1740033509885890300,4.650890380859375,-0.95489501953125,-0.3380889892578125,0.2669677734375
1740033509895929300,4.660929443359375,-0.935760498046875,-0.3049774169921875,0.2469329833984375
1740033509905968000,4.670968017578125,-0.9370269775390625,-0.253997802734375,0.2628631591796875
1740033509916007200,4.681007080078125,-0.9674072265625,-0.2431793212890625,0.2663421630859375
1740033509926047200,4.691047119140625,-0.970489501953125,-0.2669219970703125,0.25140380859375
1740033509936086300,4.701086181640625,-0.972198486328125,-0.31817626953125,0.2599639892578125
1740033509946125300,4.711125244140625,-0.98736572265625,-0.4272003173828125,0.2652740478515625
1740033509956164400,4.721164306640625,-0.994873046875,-0.3998565673828125,0.24365234375
1740033509966203100,4.731203125,-0.9737548828125,-0.2711334228515625,0.2992095947265625
1740033509976243200,4.7412431640625,-0.9664306640625,-0.2689361572265625,0.3191986083984375
1740033509986282200,4.7512822265625,-0.9452056884765625,-0.26959228515625,0.3071746826171875
1740033509996321300,4.7613212890625,-0.9207916259765625,-0.2554168701171875,0.2967681884765625
1740033510006360300,4.7713603515625,-0.90093994140625,-0.2671661376953125,0.3110809326171875
1740033510016399400,4.7813994140625,-0.8664703369140625,-0.231536865234375,0.3394927978515625
1740033510026439200,4.791439208984375,-0.8793182373046875,-0.1732177734375,0.37249755859375
1740033510036478200,4.801478271484375,-0.922332763671875,-0.2092742919921875,0.3819732666015625
1740033510046517200,4.811517333984375,-0.9360198974609375,-0.1962432861328125,0.302825927734375
1740033510056556300,4.821556396484375,-0.9306182861328125,-0.2329254150390625,0.2985687255859375
1740033510066596400,4.831596435546875,-0.9452972412109375,-0.3567657470703125,0.247314453125
1740033510076635400,4.841635498046875,-0.93505859375,-0.4051971435546875,0.1563720703125
1740033510086674200,4.851674072265625,-0.8663330078125,-0.3792877197265625,0.19696044921875
1740033510096713200,4.861713134765625,-0.8401031494140625,-0.328369140625,0.233551025390625
1740033510106752300,4.871752197265625,-0.870391845703125,-0.2876129150390625,0.281005859375
1740033510116792300,4.881792236328125,-0.9152069091796875,-0.2832489013671875,0.261962890625
1740033510126831400,4.891831298828125,-0.938507080078125,-0.336517333984375,0.238006591796875
1740033510136870400,4.901870361328125,-0.9426116943359375,-0.40936279296875,0.189727783203125
1740033510146909200,4.9119091796875,-0.90643310546875,-0.45782470703125,0.1548919677734375
1740033510156948200,4.9219482421875,-0.8421630859375,-0.4553680419921875,0.158843994140625
1740033510166988300,4.93198828125,-0.813568115234375,-0.3867950439453125,0.2352752685546875
1740033510177027300,4.94202734375,-0.8475341796875,-0.2926025390625,0.3158111572265625
1740033510187066400,4.95206640625,-0.87628173828125,-0.2444305419921875,0.374786376953125
1740033510197105200,4.962105224609375,-0.920989990234375,-0.275909423828125,0.3989105224609375
1740033510207145200,4.972145263671875,-0.9403533935546875,-0.32293701171875,0.319000244140625
1740033510217184300,4.982184326171875,-0.9626312255859375,-0.4220733642578125,0.2910308837890625
1740033510227223000,4.99222314453125,-0.993896484375,-0.487274169921875,0.2283172607421875
1740033510237262300,5.002262451171875,-0.9286346435546875,-0.56201171875,0.238677978515625
1740033510247301400,5.01230126953125,-0.9733428955078125,-0.5800933837890625,0.3204803466796875
1740033510257341400,5.022341552734375,-1.0885467529296875,-0.5730133056640625,0.3339996337890625
1740033510267380200,5.032380126953125,-1.021026611328125,-0.4431304931640625,0.39007568359375
1740033510277419300,5.042419189453125,-0.874542236328125,-0.2821044921875,0.5891265869140625
1740033510287457800,5.052457763671875,-0.476654052734375,-0.1005706787109375,0.9937744140625
1740033510297497900,5.062497802734375,-0.705108642578125,-0.1229705810546875,0.9853057861328125
1740033510307537000,5.072536865234375,-0.863983154296875,-0.19317626953125,0.644744873046875
1740033510317576000,5.082575927734375,-0.9176788330078125,-0.149261474609375,0.567718505859375
1740033510327614700,5.09261474609375,-1.0023956298828125,-0.1374359130859375,0.345611572265625
1740033510337653800,5.10265380859375,-1.0280303955078125,-0.0953216552734375,0.1633758544921875
1740033510347693800,5.11269384765625,-0.9380645751953125,-0.016845703125,0.2637481689453125
1740033510357732900,5.12273291015625,-0.9504547119140625,-0.015106201171875,0.2512054443359375
1740033510367772000,5.13277197265625,-0.989288330078125,-0.036468505859375,0.25372314453125
1740033510377810700,5.142810791015625,-1.01348876953125,-0.0333404541015625,0.2685394287109375
1740033510387849700,5.152849609375,-0.9756011962890625,-0.017120361328125,0.264495849609375
1740033510397889800,5.162889892578125,-0.86187744140625,-0.0522308349609375,0.2529144287109375
1740033510407928800,5.1729287109375,-0.8242950439453125,-0.124542236328125,0.27435302734375
1740033510417967900,5.1829677734375,-0.9283905029296875,-0.1870880126953125,0.3101043701171875
1740033510428007000,5.1930068359375,-0.92340087890625,-0.2068023681640625,0.3130950927734375
1740033510438047000,5.203046875,-0.8392181396484375,-0.2339630126953125,0.3855133056640625
1740033510448085800,5.213085693359375,-0.8661956787109375,-0.268585205078125,0.3802490234375
1740033510458124800,5.223124755859375,-0.8870849609375,-0.281402587890625,0.364959716796875
1740033510468163800,5.233163818359375,-0.8826141357421875,-0.2749786376953125,0.376220703125
1740033510478203000,5.243202880859375,-0.879364013671875,-0.2746124267578125,0.3611297607421875
1740033510488243000,5.253242919921875,-0.8735809326171875,-0.2856903076171875,0.3385009765625
1740033510498281700,5.26328173828125,-0.8799591064453125,-0.2791290283203125,0.310943603515625
1740033510508320800,5.27332080078125,-0.8947296142578125,-0.266448974609375,0.294586181640625
1740033510518359800,5.28335986328125,-0.8995208740234375,-0.255096435546875,0.294158935546875
1740033510528399600,5.293399658203125,-0.905548095703125,-0.253082275390625,0.3118438720703125
1740033510538439000,5.30343896484375,-0.9011383056640625,-0.2556610107421875,0.328369140625
1740033510548478000,5.31347802734375,-0.8907470703125,-0.2513275146484375,0.3358612060546875
1740033510558516700,5.323516845703125,-0.894134521484375,-0.2441864013671875,0.33551025390625
1740033510568555800,5.3335556640625,-0.9008941650390625,-0.2297210693359375,0.3369598388671875
1740033510578595800,5.343595947265625,-0.899688720703125,-0.2095947265625,0.3538055419921875
1740033510588634600,5.353634521484375,-0.920745849609375,-0.197540283203125,0.35150146484375
1740033510598674000,5.363673828125,-0.936737060546875,-0.19805908203125,0.341064453125
1740033510608713000,5.373712890625,-0.920623779296875,-0.2081298828125,0.3264312744140625
1740033510618751700,5.383751708984375,-0.914947509765625,-0.2096710205078125,0.309539794921875
1740033510628791800,5.393791748046875,-0.915679931640625,-0.204132080078125,0.3189544677734375
1740033510638830800,5.403830810546875,-0.9359588623046875,-0.193939208984375,0.33978271484375
1740033510648869600,5.41386962890625,-0.9391937255859375,-0.19635009765625,0.3631744384765625
1740033510658909000,5.423908935546875,-0.9328460693359375,-0.2213287353515625,0.396392822265625
1740033510668949000,5.433948974609375,-0.9525146484375,-0.2567291259765625,0.427001953125
1740033510678987800,5.44398779296875,-0.9502716064453125,-0.2736968994140625,0.43902587890625
1740033510689026800,5.45402685546875,-0.9369049072265625,-0.286285400390625,0.4458770751953125
1740033510699065900,5.46406591796875,-0.9257965087890625,-0.288848876953125,0.478607177734375
1740033510709105000,5.47410498046875,-0.9040069580078125,-0.2841033935546875,0.523712158203125
1740033510719144700,5.484144775390625,-0.849853515625,-0.285675048828125,0.59735107421875
1740033510729184000,5.49418408203125,-0.8058319091796875,-0.33123779296875,0.6172943115234375
1740033510739222800,5.504222900390625,-0.7635955810546875,-0.3829498291015625,0.5991973876953125
1740033510749261800,5.51426171875,-0.677947998046875,-0.3981475830078125,0.6302642822265625
1740033510759302000,5.524302001953125,-0.66357421875,-0.425689697265625,0.644287109375
1740033510769340700,5.534340576171875,-0.7143096923828125,-0.4656982421875,0.559661865234375
1740033510779380000,5.5443798828125,-0.6861724853515625,-0.4869232177734375,0.495086669921875
1740033510789419000,5.5544189453125,-0.6378021240234375,-0.48333740234375,0.5094146728515625
1740033510799457800,5.564457763671875,-0.6204833984375,-0.4677734375,0.5360870361328125
1740033510809497900,5.574497802734375,-0.624908447265625,-0.4846954345703125,0.547027587890625
1740033510819537000,5.584536865234375,-0.64227294921875,-0.489105224609375,0.58221435546875
1740033510829575700,5.59457568359375,-0.6684417724609375,-0.4537506103515625,0.6388702392578125
1740033510839615000,5.604614990234375,-0.6673126220703125,-0.4275970458984375,0.6878662109375
1740033510849653800,5.61465380859375,-0.709503173828125,-0.414337158203125,0.667877197265625
1740033510859693800,5.62469384765625,-0.7096099853515625,-0.4126434326171875,0.620086669921875
1740033510869732900,5.63473291015625,-0.69134521484375,-0.430755615234375,0.5724639892578125
1740033510879771600,5.644771728515625,-0.7113800048828125,-0.4290924072265625,0.5495452880859375
1740033510889810700,5.654810791015625,-0.7157440185546875,-0.4129180908203125,0.5437164306640625
1740033510899850800,5.664850830078125,-0.6891937255859375,-0.4139251708984375,0.5291748046875
1740033510909889800,5.674889892578125,-0.681121826171875,-0.4258270263671875,0.5088348388671875
1740033510919928800,5.6849287109375,-0.667633056640625,-0.4206390380859375,0.497283935546875
1740033510929967900,5.6949677734375,-0.6458587646484375,-0.4131011962890625,0.4940185546875
1740033510940006700,5.705006591796875,-0.6356658935546875,-0.424957275390625,0.495086669921875
1740033510950046700,5.715046630859375,-0.646392822265625,-0.4307861328125,0.5195465087890625
1740033510960085800,5.725085693359375,-0.6374969482421875,-0.420440673828125,0.539886474609375
1740033510970124800,5.735124755859375,-0.5998382568359375,-0.4147491455078125,0.4792938232421875
1740033510980163800,5.745163818359375,-0.589691162109375,-0.40869140625,0.4976806640625
1740033510990204000,5.755203857421875,-0.665985107421875,-0.416168212890625,0.554290771484375
1740033511000242700,5.76524267578125,-0.6531524658203125,-0.422882080078125,0.4939422607421875
1740033511010281700,5.77528173828125,-0.63592529296875,-0.402496337890625,0.5005645751953125
1740033511020320800,5.78532080078125,-0.6620025634765625,-0.3968658447265625,0.50732421875
1740033511030359800,5.79535986328125,-0.665130615234375,-0.385589599609375,0.4806365966796875
1740033511040400000,5.80539990234375,-0.6796875,-0.363922119140625,0.493896484375
1740033511050439000,5.81543896484375,-0.743499755859375,-0.3494720458984375,0.5283966064453125
1740033511060477700,5.825477783203125,-0.7415771484375,-0.3544464111328125,0.543609619140625
1740033511070516700,5.835516845703125,-0.748199462890625,-0.3726043701171875,0.53009033203125
1740033511080556800,5.845556884765625,-0.73388671875,-0.384918212890625,0.5311737060546875
1740033511090595800,5.855595947265625,-0.7286529541015625,-0.393585205078125,0.5061492919921875
1740033511100635000,5.865634765625,-0.7363739013671875,-0.4030303955078125,0.466644287109375
1740033511110674000,5.875673828125,-0.7312164306640625,-0.4058685302734375,0.449127197265625
1740033511120712700,5.885712646484375,-0.74798583984375,-0.3933563232421875,0.449188232421875
1740033511130752800,5.895752685546875,-0.803253173828125,-0.3640289306640625,0.4559173583984375
1740033511140791800,5.905791748046875,-0.812164306640625,-0.3454742431640625,0.473663330078125
1740033511150830800,5.915830810546875,-0.807342529296875,-0.3523101806640625,0.499298095703125
1740033511160870000,5.925869873046875,-0.814361572265625,-0.35638427734375,0.540496826171875
1740033511170910000,5.935909912109375,-0.8389434814453125,-0.3574371337890625,0.5703125
1740033511180948700,5.94594873046875,-0.887847900390625,-0.374603271484375,0.5414276123046875
1740033511190987800,5.95598779296875,-0.8874053955078125,-0.375640869140625,0.5018768310546875
1740033511201026800,5.96602685546875,-0.8823089599609375,-0.3564300537109375,0.4766693115234375
1740033511211065900,5.97606591796875,-0.893798828125,-0.3567962646484375,0.46807861328125
1740033511221106000,5.98610595703125,-0.8808746337890625,-0.393524169921875,0.4592742919921875
1740033511231145000,5.99614501953125,-0.8431549072265625,-0.41748046875,0.4488983154296875
1740033511241183700,6.006183837890625,-0.8294219970703125,-0.4228668212890625,0.469329833984375
1740033511251222800,6.016222900390625,-0.8317413330078125,-0.42266845703125,0.4733734130859375
1740033511261262800,6.026262939453125,-0.7751312255859375,-0.4066619873046875,0.4673614501953125
1740033511271301600,6.036301513671875,-0.792877197265625,-0.393096923828125,0.5000457763671875
1740033511281341000,6.0463408203125,-0.8515167236328125,-0.39306640625,0.525543212890625
1740033511291380000,6.0563798828125,-0.910125732421875,-0.441162109375,0.48333740234375
1740033511301418800,6.066418701171875,-0.9204559326171875,-0.464080810546875,0.4611358642578125
1740033511311458800,6.076458740234375,-0.958953857421875,-0.486114501953125,0.444976806640625
1740033511321497900,6.086497802734375,-0.9894561767578125,-0.4560699462890625,0.4893798828125
1740033511331537000,6.096536865234375,-0.982025146484375,-0.41363525390625,0.53546142578125
1740033511341576000,6.106575927734375,-0.98968505859375,-0.4181976318359375,0.53411865234375
1740033511351616000,6.116615966796875,-0.9396514892578125,-0.4391937255859375,0.46240234375
1740033511361655000,6.126655029296875,-0.8293914794921875,-0.4599609375,0.408538818359375
1740033511371693800,6.13669384765625,-0.7566375732421875,-0.528228759765625,0.3856353759765625
1740033511381732900,6.14673291015625,-0.77740478515625,-0.5638885498046875,0.41571044921875
1740033511391772000,6.15677197265625,-0.7729034423828125,-0.558319091796875,0.48297119140625
1740033511401811700,6.166811767578125,-0.7059173583984375,-0.54656982421875,0.5368499755859375
1740033511411851000,6.17685107421875,-0.6990509033203125,-0.57037353515625,0.543182373046875
1740033511421889800,6.186889892578125,-0.7056121826171875,-0.627777099609375,0.477447509765625
1740033511431928800,6.1969287109375,-0.672332763671875,-0.675750732421875,0.395721435546875
1740033511441969000,6.206968994140625,-0.5698699951171875,-0.6644744873046875,0.407928466796875
1740033511452008000,6.217008056640625,-0.447723388671875,-0.646453857421875,0.4623565673828125
1740033511462047000,6.227046875,-0.475433349609375,-0.6821746826171875,0.5198211669921875
1740033511472086000,6.2370859375,-0.514068603515625,-0.723358154296875,0.5288543701171875
1740033511482124800,6.247124755859375,-0.53192138671875,-0.717987060546875,0.500885009765625
1740033511492164900,6.257164794921875,-0.4789276123046875,-0.693695068359375,0.4668121337890625
1740033511502204000,6.267203857421875,-0.366607666015625,-0.6918487548828125,0.4494171142578125
1740033511512242700,6.27724267578125,-0.3339385986328125,-0.7540130615234375,0.41986083984375
1740033511522282000,6.287281982421875,-0.34783935546875,-0.7929534912109375,0.366302490234375
1740033511532322000,6.297322021484375,-0.292449951171875,-0.788177490234375,0.403228759765625
1740033511542360800,6.30736083984375,-0.262847900390625,-0.8218994140625,0.43609619140625
1740033511552400000,6.31739990234375,-0.279510498046875,-0.8300018310546875,0.4174957275390625
1740033511562439000,6.32743896484375,-0.3021392822265625,-0.7944793701171875,0.38580322265625
1740033511572477700,6.337477783203125,-0.2734222412109375,-0.782501220703125,0.3231353759765625
1740033511582517800,6.347517822265625,-0.329803466796875,-0.8058013916015625,0.2030181884765625
1740033511592557000,6.35755712890625,-0.3121795654296875,-0.8717041015625,0.0908660888671875
1740033511602595800,6.367595947265625,-0.0886077880859375,-0.8450775146484375,0.152435302734375
1740033511612635000,6.377634765625,-0.063262939453125,-0.83636474609375,0.2620849609375
1740033511622675000,6.387675048828125,-0.0236358642578125,-0.9324951171875,0.3385467529296875
1740033511632713700,6.397713623046875,-0.00030517578125,-0.967193603515625,0.3214111328125
1740033511642752800,6.407752685546875,-0.0852508544921875,-0.94708251953125,0.2380523681640625
1740033511652792000,6.4177919921875,-0.1097259521484375,-0.8970947265625,0.1501312255859375
1740033511662830800,6.427830810546875,-0.08599853515625,-0.8548736572265625,0.067901611328125
1740033511672871000,6.437870849609375,-0.1011810302734375,-0.843963623046875,0.01739501953125
1740033511682910000,6.447909912109375,-0.1262664794921875,-0.8586578369140625,-0.0130615234375
1740033511692948700,6.45794873046875,-0.1221466064453125,-0.8462677001953125,-0.0283203125
1740033511702988000,6.467988037109375,-0.1395416259765625,-0.885467529296875,-0.026123046875
1740033511713027800,6.47802783203125,-0.0749664306640625,-0.9339141845703125,0.045013427734375
1740033511723067000,6.48806689453125,-0.075286865234375,-1.0267486572265625,0.0927276611328125
1740033511733106000,6.49810595703125,-0.1094818115234375,-1.0662078857421875,0.097930908203125
1740033511743145000,6.50814501953125,-0.1695404052734375,-1.00946044921875,0.114837646484375
1740033511753183700,6.518183837890625,-0.273590087890625,-0.9431304931640625,0.06878662109375
1740033511763223800,6.528223876953125,-0.33416748046875,-0.8790740966796875,0.0028533935546875
1740033511773263000,6.53826318359375,-0.3976898193359375,-0.8394012451171875,0.0681304931640625
1740033511783302000,6.548302001953125,-0.4141082763671875,-0.8585205078125,0.03912353515625
1740033511793341000,6.5583408203125,-0.3667449951171875,-0.9034881591796875,0.05181884765625
1740033511803381000,6.568381103515625,-0.2591552734375,-0.8619537353515625,0.09344482421875
1740033511813419800,6.578419677734375,-0.198394775390625,-0.836761474609375,0.1377716064453125
1740033511823458800,6.588458740234375,-0.210205078125,-0.8873748779296875,0.1637420654296875
1740033511833498000,6.598498046875,-0.272918701171875,-0.924346923828125,0.180999755859375
1740033511843537000,6.608536865234375,-0.2721099853515625,-0.93341064453125,0.1672515869140625
1740033511853577000,6.618576904296875,-0.32171630859375,-0.8549041748046875,0.155120849609375
1740033511863616000,6.628615966796875,-0.30487060546875,-0.7905426025390625,0.1901092529296875
1740033511873654800,6.63865478515625,-0.24725341796875,-0.753021240234375,0.1435546875
1740033511883693800,6.64869384765625,-0.310150146484375,-0.8067474365234375,0.0559234619140625
1740033511893734000,6.65873388671875,-0.29998779296875,-0.8801422119140625,-0.01824951171875
1740033511903773000,6.66877294921875,-0.3181610107421875,-0.9053497314453125,0.026611328125
1740033511913812000,6.67881201171875,-0.370330810546875,-0.9107208251953125,0.131439208984375
1740033511923851000,6.68885107421875,-0.371856689453125,-0.915740966796875,0.1679229736328125
1740033511933889800,6.698889892578125,-0.3597869873046875,-0.9329986572265625,0.1759796142578125
1740033511943929900,6.708929931640625,-0.3187408447265625,-0.9343719482421875,0.23675537109375
1740033511953969000,6.718968994140625,-0.3267669677734375,-0.875274658203125,0.2643280029296875
1740033511964008000,6.729008056640625,-0.395782470703125,-0.854827880859375,0.1980743408203125
1740033511974047000,6.739046875,-0.401611328125,-0.8456268310546875,0.18170166015625
1740033511984087000,6.749087158203125,-0.3143310546875,-0.844818115234375,0.2326202392578125
1740033511994125800,6.759125732421875,-0.24908447265625,-0.829254150390625,0.2451019287109375
1740033512004164900,6.769164794921875,-0.259033203125,-0.7763824462890625,0.26470947265625
1740033512014204000,6.779203857421875,-0.39300537109375,-0.71533203125,0.3368988037109375
1740033512024243700,6.78924365234375,-0.6283416748046875,-0.678436279296875,0.3525390625
1740033512034283000,6.799282958984375,-0.83258056640625,-0.6788177490234375,0.29150390625
1740033512044322000,6.809322021484375,-0.9430694580078125,-0.69415283203125,0.23333740234375
1740033512054360800,6.81936083984375,-0.942596435546875,-0.7547149658203125,0.1297607421875
1740033512064400000,6.82939990234375,-0.8467254638671875,-0.836639404296875,0.0942230224609375
1740033512074440000,6.83943994140625,-0.6917266845703125,-0.8495635986328125,0.1220703125
1740033512084479000,6.84947900390625,-0.5385284423828125,-0.812347412109375,0.142669677734375
1740033512094518000,6.85951806640625,-0.452423095703125,-0.7758636474609375,0.1407012939453125
1740033512104556800,6.869556884765625,-0.4647369384765625,-0.716705322265625,0.1281585693359375
1740033512114596900,6.879596923828125,-0.49676513671875,-0.654571533203125,0.1587371826171875
1740033512124636000,6.889635986328125,-0.428192138671875,-0.620330810546875,0.168212890625
1740033512134674700,6.8996748046875,-0.295928955078125,-0.615325927734375,0.1852264404296875
1740033512144714000,6.9097138671875,-0.2625274658203125,-0.68878173828125,0.265289306640625
1740033512154753000,6.9197529296875,-0.0787200927734375,-0.7560577392578125,0.2739715576171875
1740033512164793000,6.92979296875,-0.0650177001953125,-0.7528228759765625,0.325775146484375
1740033512174831900,6.939831787109375,-0.1681365966796875,-0.7707366943359375,0.3031005859375
1740033512184871000,6.949870849609375,-0.2177886962890625,-0.8063201904296875,0.266937255859375
1740033512194909700,6.95990966796875,-0.1724395751953125,-0.8630523681640625,0.2122802734375
1740033512204949800,6.96994970703125,-0.136627197265625,-0.8691558837890625,0.2053985595703125
1740033512214989000,6.979989013671875,-0.136505126953125,-0.811431884765625,0.28533935546875
1740033512225027800,6.99002783203125,-0.0800933837890625,-0.693450927734375,0.432342529296875
1740033512235067000,7.00006689453125,0.02642822265625,-0.6243896484375,0.6185302734375
1740033512245106000,7.01010595703125,0.066314697265625,-0.6351165771484375,0.6069793701171875
1740033512255145700,7.020145751953125,0.0053558349609375,-0.7285308837890625,0.470672607421875
1740033512265184800,7.030184814453125,-0.03924560546875,-0.803497314453125,0.4261627197265625
1740033512275224000,7.04022412109375,-0.0901336669921875,-0.8264312744140625,0.4316864013671875
1740033512285262800,7.050262939453125,-0.1502685546875,-0.8188629150390625,0.3642578125
1740033512295303000,7.060302978515625,-0.18475341796875,-0.8358154296875,0.3031768798828125
1740033512305341700,7.070341796875,-0.1781463623046875,-0.80316162109375,0.277130126953125
1740033512315380700,7.080380615234375,-0.1551055908203125,-0.769744873046875,0.2245330810546875
1740033512325419800,7.090419677734375,-0.176910400390625,-0.6625823974609375,0.148895263671875
1740033512335458800,7.100458740234375,-0.3840484619140625,-0.5257720947265625,0.329254150390625
1740033512345499000,7.110498779296875,-0.626068115234375,-0.4663543701171875,0.4762115478515625
1740033512355538000,7.120537841796875,-0.728912353515625,-0.5588836669921875,0.4107818603515625
1740033512365576700,7.13057666015625,-0.6946868896484375,-0.70709228515625,0.4210357666015625
1740033512375615700,7.14061572265625,-0.4953460693359375,-0.8060150146484375,0.4624786376953125
1740033512385655800,7.15065576171875,-0.2362823486328125,-0.8231658935546875,0.5424346923828125
1740033512395694800,7.16069482421875,-0.0645751953125,-0.7977752685546875,0.6103363037109375
1740033512405734000,7.17073388671875,-0.0266571044921875,-0.7741851806640625,0.6200714111328125
1740033512415772700,7.180772705078125,0.030914306640625,-0.733062744140625,0.685760498046875
1740033512425812700,7.190812744140625,0.166107177734375,-0.7535247802734375,0.697509765625
1740033512435851800,7.200851806640625,0.190673828125,-0.8327484130859375,0.5736236572265625
1740033512445890600,7.210890625,0.27435302734375,-0.8585052490234375,0.519805908203125
1740033512455929900,7.220929931640625,0.2508544921875,-0.8306121826171875,0.5611419677734375
1740033512465969000,7.230968994140625,0.2057037353515625,-0.7972259521484375,0.4956512451171875
1740033512476009000,7.241009033203125,0.0919036865234375,-0.7961578369140625,0.41363525390625
1740033512486047700,7.2510478515625,-0.05487060546875,-0.775787353515625,0.3900299072265625
1740033512496086800,7.261086669921875,-0.1222686767578125,-0.755126953125,0.38055419921875
1740033512506125600,7.27112548828125,-0.1243743896484375,-0.801177978515625,0.43072509765625
1740033512516165600,7.28116552734375,-0.0809783935546875,-0.8522186279296875,0.4872283935546875
1740033512526205000,7.291204833984375,-0.06561279296875,-0.8827667236328125,0.5108184814453125
1740033512536243700,7.30124365234375,-0.0971527099609375,-0.892913818359375,0.52099609375
1740033512546282800,7.31128271484375,-0.206146240234375,-0.833892822265625,0.55902099609375
1740033512556321800,7.32132177734375,-0.3127899169921875,-0.783050537109375,0.54595947265625
1740033512566361600,7.331361572265625,-0.3580169677734375,-0.7374420166015625,0.505279541015625
1740033512576400600,7.341400634765625,-0.3421630859375,-0.7209625244140625,0.50653076171875
1740033512586440000,7.35143994140625,-0.3008270263671875,-0.734466552734375,0.506134033203125
1740033512596478700,7.361478759765625,-0.25341796875,-0.811126708984375,0.531890869140625
1740033512606518800,7.371518798828125,-0.2833251953125,-0.870269775390625,0.5234222412109375
1740033512616557800,7.381557861328125,-0.2248687744140625,-0.8645477294921875,0.5305328369140625
1740033512626596600,7.3915966796875,-0.1642913818359375,-0.8307037353515625,0.5225372314453125
1740033512636636000,7.401635986328125,-0.0882110595703125,-0.8142242431640625,0.4749755859375
1740033512646675000,7.411675048828125,-0.0056610107421875,-0.870849609375,0.3991851806640625
1740033512656714800,7.42171484375,0.0851593017578125,-0.8313446044921875,0.4228515625
1740033512666753800,7.43175390625,0.1626434326171875,-0.8466949462890625,0.5180206298828125
1740033512676792800,7.441792724609375,0.15667724609375,-0.822174072265625,0.5050811767578125
1740033512686831600,7.45183154296875,0.11151123046875,-0.8353424072265625,0.540283203125
1740033512696871700,7.46187158203125,0.0793609619140625,-0.8839874267578125,0.6468963623046875
1740033512706911000,7.471910888671875,0.0528717041015625,-0.9290008544921875,0.73187255859375
1740033512716949800,7.48194970703125,0.0458221435546875,-0.9755706787109375,0.666229248046875
1740033512726988800,7.49198876953125,0.0924835205078125,-1.00372314453125,0.6071319580078125
1740033512737027800,7.50202783203125,0.1616058349609375,-0.97662353515625,0.6482391357421875
1740033512747067600,7.512067626953125,0.17742919921875,-0.9165802001953125,0.720428466796875
1740033512757106700,7.522106689453125,0.1903076171875,-0.920318603515625,0.7698516845703125
1740033512767146000,7.53214599609375,0.187744140625,-1.0223388671875,0.746917724609375
1740033512777184800,7.542184814453125,0.1383819580078125,-1.1280517578125,0.6773681640625
1740033512787224800,7.552224853515625,0.1251983642578125,-1.1908111572265625,0.63226318359375
1740033512797264000,7.562263916015625,0.1527252197265625,-1.1958770751953125,0.618499755859375
1740033512807302700,7.572302734375,0.1947174072265625,-1.1464691162109375,0.691009521484375
1740033512817341700,7.582341796875,0.268463134765625,-1.091766357421875,0.7334442138671875
1740033512827381800,7.5923818359375,0.341278076171875,-1.0737457275390625,0.687225341796875
1740033512837420800,7.6024208984375,0.194000244140625,-1.019561767578125,0.5578155517578125
1740033512847459800,7.6124599609375,0.100860595703125,-0.948272705078125,0.486541748046875
1740033512857499000,7.622498779296875,0.037933349609375,-0.9389495849609375,0.46173095703125
1740033512867537700,7.63253759765625,-0.058074951171875,-0.9936065673828125,0.466033935546875
1740033512877577700,7.64257763671875,-0.09710693359375,-1.025390625,0.5145263671875
1740033512887616800,7.65261669921875,-0.102081298828125,-1.0101470947265625,0.53399658203125
1740033512897655800,7.66265576171875,-0.159515380859375,-1.0449676513671875,0.5400848388671875
1740033512907694800,7.67269482421875,-0.2199859619140625,-1.017913818359375,0.5475006103515625
1740033512917735000,7.68273486328125,-0.165496826171875,-0.96478271484375,0.560577392578125
1740033512927773700,7.692773681640625,-0.1028594970703125,-0.9512786865234375,0.5671234130859375
1740033512937812700,7.702812744140625,-0.11773681640625,-0.9518280029296875,0.5144195556640625
1740033512947851800,7.712851806640625,-0.145172119140625,-0.92852783203125,0.4350738525390625
1740033512957890800,7.722890869140625,-0.176910400390625,-0.93414306640625,0.39599609375
1740033512967931000,7.732930908203125,-0.212921142578125,-0.94232177734375,0.37615966796875
1740033512977970000,7.742969970703125,-0.175201416015625,-0.896759033203125,0.3722381591796875
1740033512988008700,7.7530087890625,-0.1720123291015625,-0.805755615234375,0.382659912109375
1740033512998047700,7.7630478515625,-0.1564178466796875,-0.7164764404296875,0.4355316162109375
1740033513008087800,7.773087890625,-0.126861572265625,-0.641143798828125,0.4581451416015625
1740033513018126800,7.783126953125,-0.0131378173828125,-0.6358642578125,0.4546051025390625
1740033513028166000,7.793165771484375,0.116119384765625,-0.64892578125,0.4080352783203125
1740033513038204700,7.80320458984375,0.18963623046875,-0.6889190673828125,0.3572998046875
1740033513048244700,7.81324462890625,0.0641632080078125,-0.70611572265625,0.364501953125
1740033513058283800,7.82328369140625,0.55853271484375,-0.7231292724609375,0.5281982421875
1740033513068322600,7.833322509765625,2.1551666259765625,-1.3041229248046875,0.8432159423828125
1740033513078361900,7.84336181640625,1.103179931640625,-1.303619384765625,0.7967987060546875
1740033513088401000,7.85340087890625,0.0153656005859375,-0.7613372802734375,0.8854522705078125
1740033513098441000,7.86344091796875,0.559112548828125,-0.715057373046875,0.91790771484375
1740033513108479700,7.873479736328125,1.053436279296875,-1.0634613037109375,0.59356689453125
1740033513118518800,7.883518798828125,1.09063720703125,-1.2591552734375,0.3473968505859375
1740033513128557600,7.8935576171875,0.7249298095703125,-1.129852294921875,0.2670135498046875
1740033513138597600,7.90359765625,0.6483306884765625,-1.0437774658203125,0.260162353515625
1740033513148637000,7.913636962890625,0.77264404296875,-0.9952850341796875,0.2423858642578125
1740033513158675700,7.92367578125,0.7325286865234375,-0.8741302490234375,0.1257476806640625
1740033513168714800,7.93371484375,0.5898590087890625,-0.786285400390625,-0.0368194580078125
1740033513178753800,7.94375390625,0.6087493896484375,-0.8277130126953125,0.06146240234375
1740033513188793600,7.953793701171875,0.5370330810546875,-0.8917388916015625,0.1473236083984375
1740033513198832600,7.96383251953125,0.40594482421875,-0.740325927734375,0.132476806640625
1740033513208872000,7.973871826171875,0.1570281982421875,-0.6918487548828125,0.077423095703125
1740033513218910700,7.98391064453125,-0.0288543701171875,-0.7613525390625,0.080474853515625
1740033513228950800,7.99395068359375,0.2249603271484375,-0.701904296875,0.154022216796875
1740033513238989800,8.00398974609375,0.4202117919921875,-0.757171630859375,0.1256561279296875
1740033513249028600,8.014028564453126,0.2561798095703125,-1.10040283203125,0.29046630859375
1740033513259067600,8.024067626953125,-0.08795166015625,-1.35479736328125,0.4631500244140625
1740033513269107700,8.034107666015625,-0.221405029296875,-1.3167266845703125,0.5903472900390625
1740033513279146800,8.044146728515624,-0.1431884765625,-1.1876373291015625,0.6889190673828125
1740033513289185800,8.054185791015625,-0.1148529052734375,-1.0599822998046875,0.5207061767578125
1740033513299224800,8.064224853515626,-0.063446044921875,-0.945220947265625,0.2857666015625
1740033513309263600,8.074263671875,0.045318603515625,-0.9251251220703125,0.1912689208984375
1740033513319303700,8.0843037109375,0.1038055419921875,-0.935699462890625,0.1810302734375
1740033513329342700,8.0943427734375,0.0964508056640625,-0.9937591552734375,0.185699462890625
1740033513339381800,8.1043818359375,0.135894775390625,-0.990020751953125,0.2639617919921875
1740033513349420800,8.1144208984375,0.260894775390625,-0.9395294189453125,0.3251495361328125
1740033513359460900,8.1244609375,0.357818603515625,-0.886749267578125,0.3338470458984375
1740033513369499600,8.134499755859375,0.3803253173828125,-0.8589935302734375,0.307891845703125
1740033513379538700,8.14453857421875,0.4101409912109375,-0.8604583740234375,0.3184967041015625
1740033513389578000,8.154577880859375,0.37994384765625,-0.8364715576171875,0.3104248046875
1740033513399616800,8.16461669921875,0.4449310302734375,-0.831268310546875,0.335845947265625
1740033513409656800,8.17465673828125,0.5439453125,-0.818328857421875,0.3652801513671875
1740033513419695900,8.18469580078125,0.5477142333984375,-0.810089111328125,0.363037109375
1740033513429734700,8.194734619140625,0.5781402587890625,-0.8359832763671875,0.3755950927734375
1740033513439773700,8.204773681640624,0.601226806640625,-0.8775482177734375,0.3957977294921875
1740033513449813800,8.214813720703125,0.58941650390625,-0.8880615234375,0.4197540283203125
1740033513459852800,8.224852783203126,0.577362060546875,-0.850311279296875,0.4779205322265625
1740033513469891800,8.234891845703125,0.5712890625,-0.7624664306640625,0.503692626953125
1740033513479931000,8.244930908203125,0.5234222412109375,-0.7234954833984375,0.4813995361328125
1740033513489970700,8.254970703125,0.5090484619140625,-0.8061370849609375,0.487640380859375
1740033513500009700,8.265009765625,0.4761199951171875,-0.8984527587890625,0.5021209716796875
1740033513510048800,8.275048828125,0.3989105224609375,-0.8801116943359375,0.540740966796875
1740033513520087800,8.285087890625,0.3837432861328125,-0.79180908203125,0.648956298828125
1740033513530126800,8.295126953125,0.3602142333984375,-0.6811370849609375,0.7353515625
1740033513540167000,8.3051669921875,0.3425445556640625,-0.598876953125,0.7838592529296875
1740033513550205700,8.315205810546875,0.299224853515625,-0.54656982421875,0.7951507568359375
1740033513560244700,8.32524462890625,0.2874298095703125,-0.539276123046875,0.78155517578125
1740033513570283800,8.33528369140625,0.254791259765625,-0.5823516845703125,0.8029327392578125
1740033513580323600,8.345323486328125,0.2667083740234375,-0.640350341796875,0.8434600830078125
1740033513590363000,8.35536279296875,0.2800750732421875,-0.6306304931640625,0.843719482421875
1740033513600402000,8.36540185546875,0.231964111328125,-0.64105224609375,0.82086181640625
1740033513610440700,8.375440673828125,0.261138916015625,-0.662933349609375,0.7603759765625
1740033513620479700,8.385479736328126,0.2591705322265625,-0.6606292724609375,0.70098876953125
1740033513630519800,8.395519775390625,0.3318634033203125,-0.7403564453125,0.702789306640625
1740033513640558600,8.40555859375,0.35382080078125,-0.767791748046875,0.688995361328125
1740033513650598000,8.415597900390624,0.3032073974609375,-0.7725067138671875,0.6725006103515625
1740033513660636700,8.42563671875,0.18817138671875,-0.82135009765625,0.742523193359375
1740033513670676700,8.4356767578125,0.3415069580078125,-0.7216796875,0.99346923828125
1740033513680715800,8.4457158203125,0.5821075439453125,-0.5323638916015625,0.68157958984375
1740033513690754800,8.4557548828125,0.2882232666015625,-0.570831298828125,0.3886871337890625
1740033513700793900,8.4657939453125,0.1061859130859375,-0.689666748046875,0.4651947021484375
1740033513710833700,8.475833740234375,0.0313720703125,-0.824920654296875,0.516937255859375
1740033513720873000,8.485873046875,-0.036468505859375,-0.9079132080078125,0.5246124267578125
1740033513730911700,8.495911865234374,0.041473388671875,-0.898345947265625,0.5409088134765625
1740033513740950800,8.50595068359375,0.242584228515625,-0.843414306640625,0.5502777099609375
1740033513750989600,8.515989501953126,0.432952880859375,-0.7709503173828125,0.56884765625
1740033513761029600,8.526029541015625,0.5518646240234375,-0.697784423828125,0.6110687255859375
1740033513771069000,8.53606884765625,0.6200103759765625,-0.6603546142578125,0.6306915283203125
1740033513781107700,8.546107666015626,0.619873046875,-0.6630096435546875,0.6417236328125
1740033513791146800,8.556146728515625,0.1414947509765625,-0.7284393310546875,0.539398193359375
1740033513801186800,8.566186767578126,-0.7629547119140625,-0.849609375,0.2951202392578125
1740033513811225900,8.576225830078124,-1.10601806640625,-0.9590606689453125,0.092437744140625
1740033513821264600,8.5862646484375,-0.6797027587890625,-0.9346923828125,0.087860107421875
1740033513831304000,8.596303955078126,0.0478515625,-0.90020751953125,0.21185302734375
1740033513841344000,8.606343994140625,0.4896087646484375,-0.9434967041015625,0.2729034423828125
1740033513851382800,8.6163828125,0.396697998046875,-0.989013671875,0.202667236328125
1740033513861421800,8.626421875,0.1893310546875,-0.9969940185546875,0.1644439697265625
1740033513871460600,8.636460693359375,-0.03985595703125,-1.0474700927734375,0.080780029296875
1740033513881499600,8.646499755859375,-0.066436767578125,-1.05303955078125,0.05224609375
1740033513891539700,8.656539794921875,0.054046630859375,-1.0326690673828125,0.1312255859375
1740033513901578800,8.666578857421875,0.2191314697265625,-0.983367919921875,0.1746826171875
1740033513911617800,8.67661767578125,0.1120147705078125,-0.9437103271484375,0.1096649169921875
1740033513921656800,8.68665673828125,-0.072662353515625,-0.9787139892578125,-0.029205322265625
1740033513931697000,8.69669677734375,-0.261566162109375,-1.0205078125,-0.1563568115234375
1740033513941735700,8.706735595703124,-0.1846771240234375,-1.0053863525390625,-0.2024078369140625
1740033513951774700,8.716774658203125,-0.084625244140625,-1.08709716796875,-0.432220458984375
1740033513961813800,8.726813720703126,-0.1263885498046875,-1.142181396484375,-0.4426116943359375
1740033513971853800,8.736853759765625,0.1181182861328125,-1.1473388671875,-0.2851104736328125
1740033513981892900,8.746892822265625,-0.05499267578125,-1.2515716552734375,-0.2241363525390625
1740033513991931600,8.756931640625,0.0906829833984375,-1.1914825439453125,-0.0817718505859375
1740033514001970700,8.766970703125,0.5435791015625,-0.93768310546875,0.4161376953125
1740033514012010000,8.777010009765625,0.2931671142578125,-0.72540283203125,0.65625
1740033514022049800,8.7870498046875,-0.1837921142578125,-0.7787933349609375,0.5002899169921875
1740033514032088800,8.7970888671875,-0.4784088134765625,-0.985504150390625,0.0759429931640625
1740033514042128000,8.8071279296875,-0.1877593994140625,-1.0847320556640625,-0.178070068359375
1740033514052166700,8.817166748046875,0.0070037841796875,-1.1307220458984375,-0.2593536376953125
1740033514062206700,8.827206787109375,0.1581573486328125,-1.1039276123046875,-0.2254638671875
1740033514072245800,8.837245849609374,0.215240478515625,-1.0254974365234375,-0.04534912109375
1740033514082284800,8.847284912109375,0.103973388671875,-0.9479217529296875,0.18865966796875
1740033514092323800,8.85732373046875,-0.0390167236328125,-0.9267120361328125,0.2997894287109375
1740033514102364000,8.867364013671875,-0.1404876708984375,-0.9444122314453125,0.26373291015625
1740033514112402700,8.877402587890625,-0.0980987548828125,-0.964447021484375,0.165313720703125
1740033514122441700,8.887441650390626,-0.0493011474609375,-0.9655609130859375,0.119110107421875
1740033514132480800,8.897480712890625,-0.0599365234375,-0.970062255859375,0.1008758544921875
1740033514142519800,8.907519775390625,-0.0539093017578125,-1.01788330078125,0.025848388671875
1740033514152559900,8.917559814453124,0.0037384033203125,-1.06439208984375,-0.04071044921875
1740033514162599000,8.927598876953125,-0.026123046875,-1.059051513671875,-0.0499420166015625
1740033514172637700,8.9376376953125,-0.0357666015625,-1.0185394287109375,0.007110595703125
1740033514182676700,8.9476767578125,0.0010528564453125,-0.990203857421875,0.08856201171875
1740033514192716800,8.957716796875,-0.0029144287109375,-0.9720458984375,0.1402130126953125
1740033514202755600,8.967755615234376,-0.0065765380859375,-0.973724365234375,0.157196044921875
1740033514212795000,8.977794921875,-0.0099334716796875,-0.9897613525390625,0.1432952880859375
1740033514222834000,8.987833984375,-0.0021514892578125,-1.004364013671875,0.0968475341796875
1740033514232873700,8.997873779296874,-0.007659912109375,-1.0123748779296875,0.029266357421875
1740033514242912800,9.007912841796875,-0.0351104736328125,-1.0168304443359375,-0.0555572509765625
1740033514252951800,9.017951904296876,0.0270843505859375,-1.0037994384765625,-0.070037841796875
1740033514262990600,9.027990478515624,0.092987060546875,-0.9907073974609375,0.028472900390625
1740033514273030000,9.03802978515625,0.081817626953125,-0.9757080078125,0.146392822265625
1740033514283070000,9.048070068359374,0.0276336669921875,-0.9834136962890625,0.1786956787109375
1740033514293109200,9.058109130859375,-0.035552978515625,-1.0045013427734375,0.1331329345703125
1740033514303148000,9.06814794921875,-0.0720062255859375,-0.9975433349609375,0.071624755859375
1740033514313187000,9.07818701171875,-0.0891571044921875,-0.986663818359375,-0.0067138671875
1740033514323227100,9.08822705078125,-0.033233642578125,-0.99139404296875,-0.03265380859375
1740033514333266200,9.09826611328125,-0.0185394287109375,-0.99444580078125,0.018402099609375
1740033514343305200,9.10830517578125,0.02374267578125,-0.997467041015625,0.10626220703125
1740033514353344300,9.11834423828125,0.037689208984375,-1.021148681640625,0.1826629638671875
1740033514363384300,9.12838427734375,0.0184783935546875,-1.00634765625,0.2664642333984375
1740033514373423000,9.138423095703125,-0.0345001220703125,-0.9870452880859375,0.282196044921875
1740033514383462100,9.148462158203126,-0.069305419921875,-0.9939117431640625,0.211883544921875
1740033514393501000,9.1585009765625,0.014434814453125,-1.0263824462890625,0.1125640869140625
1740033514403540200,9.168540283203125,0.0259246826171875,-1.03106689453125,-0.0012969970703125
1740033514413580300,9.178580322265624,0.0342254638671875,-1.003875732421875,-0.07159423828125
1740033514423619000,9.188619140625,-0.0174102783203125,-1.0166168212890625,-0.1725921630859375
1740033514433658000,9.198658203125,-0.0050201416015625,-1.02996826171875,-0.2211761474609375
1740033514443697200,9.208697265625,0.0074310302734375,-1.0001068115234375,-0.1186370849609375
1740033514453737200,9.2187373046875,-0.0194854736328125,-1.0035247802734375,0.093719482421875
1740033514463776000,9.22877587890625,0.03125,-1.0135650634765625,0.0841827392578125
1740033514473815300,9.238815185546875,0.0181884765625,-0.937225341796875,0.0279083251953125
1740033514483854000,9.24885400390625,-0.0275726318359375,-0.956390380859375,0.0206756591796875
1740033514493894100,9.25889404296875,-0.015838623046875,-1.02545166015625,0.060882568359375
1740033514503933200,9.26893310546875,0.02423095703125,-1.02484130859375,0.136932373046875
1740033514513972000,9.278971923828125,-0.02227783203125,-0.9713897705078125,0.1416015625
1740033514524011000,9.289010986328124,0.0453643798828125,-0.9537353515625,0.100677490234375
1740033514534050300,9.29905029296875,0.0729217529296875,-1.0106048583984375,0.0877838134765625
1740033514544090000,9.309090087890626,0.03656005859375,-0.9979400634765625,0.0632781982421875
1740033514554129200,9.319129150390625,0.04833984375,-0.9762725830078125,0.0711822509765625
1740033514564168200,9.329168212890625,-0.06219482421875,-0.9758148193359375,0.0814056396484375
1740033514574207000,9.33920703125,-0.00421142578125,-1.004058837890625,0.075225830078125
1740033514584247000,9.3492470703125,-0.106353759765625,-1.0563507080078125,0.001922607421875
1740033514594286000,9.3592861328125,-0.0503997802734375,-1.115234375,-0.1802215576171875
1740033514604325000,9.3693251953125,0.3177490234375,-1.1030731201171875,-0.1974945068359375
1740033514614364200,9.3793642578125,-0.1299285888671875,-0.9083709716796875,0.015289306640625
1740033514624404200,9.389404296875,0.062652587890625,-0.9272003173828125,0.18988037109375
1740033514634443000,9.399443115234375,-0.05145263671875,-1.0162811279296875,0.2596435546875
1740033514644482000,9.40948193359375,-0.138092041015625,-0.921630859375,0.241851806640625
1740033514654521300,9.419521240234374,-0.191925048828125,-0.9509429931640625,0.052734375
1740033514664560000,9.42956005859375,0.0538330078125,-1.033447265625,-0.093780517578125
1740033514674600200,9.43960009765625,0.1420135498046875,-1.0478363037109375,-0.0170745849609375
1740033514684639200,9.44963916015625,0.0069732666015625,-1.0029449462890625,0.0324249267578125
1740033514694678000,9.459677978515625,0.0603179931640625,-1.015411376953125,0.0943756103515625
1740033514704717000,9.469717041015626,-0.02203369140625,-1.0055389404296875,0.091094970703125
1740033514714757000,9.479757080078125,-0.0004119873046875,-0.977996826171875,0.0898590087890625
1740033514724796200,9.489796142578125,-0.0128021240234375,-0.97479248046875,0.0731353759765625
1740033514734835200,9.499835205078124,0.103057861328125,-0.99090576171875,0.027679443359375
1740033514744874200,9.509874267578125,0.0974273681640625,-0.98577880859375,0.006988525390625
1740033514754914000,9.5199140625,0.134002685546875,-0.999420166015625,0.0473785400390625
1740033514764953000,9.529953125,0.0674591064453125,-0.9931488037109375,0.0883941650390625
1740033514774992100,9.5399921875,-0.12872314453125,-0.9990692138671875,0.090118408203125
1740033514785031200,9.55003125,-0.178741455078125,-1.0390472412109375,0.0504913330078125
1740033514795070200,9.5600703125,-0.0154266357421875,-1.0234222412109375,-0.0007171630859375
1740033514805110300,9.5701103515625,-0.09234619140625,-1.014739990234375,-0.0682220458984375
1740033514815149000,9.580149169921874,-0.16802978515625,-0.995513916015625,-0.1017303466796875
1740033514825188000,9.59018798828125,0.03094482421875,-0.9785308837890625,-0.075653076171875
1740033514835227100,9.60022705078125,0.0489044189453125,-1.00811767578125,-0.03179931640625
1740033514845267000,9.610266845703125,0.2113800048828125,-1.010345458984375,0.0501861572265625
1740033514855306200,9.62030615234375,0.1920318603515625,-0.9996185302734375,0.1599884033203125
1740033514865345300,9.63034521484375,-0.0101318359375,-0.9477996826171875,0.2040863037109375
1740033514875384000,9.640384033203125,0.0635223388671875,-0.9402923583984375,0.22027587890625
1740033514885424000,9.650424072265626,0.1107025146484375,-1.0214385986328125,0.166778564453125
1740033514895463200,9.660463134765624,0.108978271484375,-1.112701416015625,0.0715179443359375
1740033514905502200,9.670502197265625,0.0631561279296875,-1.068511962890625,0.0030975341796875
1740033514915541200,9.680541259765626,-0.613006591796875,-0.86517333984375,-0.0825042724609375
1740033514925581300,9.690581298828125,0.1827392578125,-0.81732177734375,0.015411376953125
1740033514935620000,9.7006201171875,0.3928985595703125,-0.889190673828125,0.092041015625
1740033514945659100,9.7106591796875,-0.0307769775390625,-0.9355316162109375,0.1533355712890625
1740033514955698200,9.7206982421875,0.240081787109375,-1.0261077880859375,0.2285614013671875
1740033514965737200,9.7307373046875,0.3390045166015625,-1.090118408203125,0.2904815673828125
1740033514975777000,9.740777099609375,0.046875,-1.0706939697265625,0.257171630859375
1740033514985816300,9.75081640625,-0.072601318359375,-0.99969482421875,0.1616668701171875
1740033514995855000,9.760855224609376,-0.014617919921875,-0.963348388671875,0.039703369140625
1740033515005894100,9.77089404296875,0.0134429931640625,-0.98492431640625,-0.055938720703125
1740033515015934200,9.780934326171876,0.0597076416015625,-1.0286712646484375,-0.09930419921875
1740033515025973000,9.790972900390624,0.080596923828125,-1.0777740478515625,-0.0729522705078125
1740033515036012300,9.80101220703125,0.0279693603515625,-1.08837890625,0.0248260498046875
1740033515046051300,9.81105126953125,-0.0262908935546875,-1.0319671630859375,0.080047607421875
1740033515056091100,9.821091064453125,-0.0272979736328125,-0.97479248046875,0.0735931396484375
1740033515066130200,9.831130126953125,0.0380706787109375,-0.9691009521484375,0.0975494384765625
1740033515076169200,9.841169189453124,0.05767822265625,-0.961944580078125,0.1038665771484375
1740033515086208000,9.8512080078125,0.069549560546875,-0.967254638671875,0.099029541015625
1740033515096247300,9.861247314453125,0.0624847412109375,-0.9938201904296875,0.0845489501953125
1740033515106287400,9.871287353515624,0.0395355224609375,-1.0089263916015625,0.063140869140625
1740033515116326100,9.881326171875,0.040435791015625,-1.001251220703125,0.06134033203125
1740033515126365200,9.891365234375,0.0628814697265625,-0.9830474853515625,0.0592193603515625
1740033515136404000,9.901404052734375,0.0382537841796875,-0.9663238525390625,0.0714111328125
1740033515146444000,9.911444091796875,0.04901123046875,-0.9819488525390625,0.0827178955078125
1740033515156483000,9.921483154296874,0.08258056640625,-1.01910400390625,0.0710601806640625
1740033515166522400,9.9315224609375,0.0847015380859375,-1.0433807373046875,0.0528564453125
1740033515176561200,9.94156103515625,0.0821990966796875,-1.0212249755859375,0.0323944091796875
1740033515186601200,9.951601318359375,0.0876007080078125,-0.99169921875,0.0088043212890625
1740033515196640300,9.96164013671875,0.0877532958984375,-0.99468994140625,0.0133819580078125
1740033515206679000,9.971678955078126,0.085235595703125,-0.9937591552734375,0.0315704345703125
1740033515216718000,9.981718017578125,0.081451416015625,-0.989105224609375,0.0552215576171875
1740033515226758100,9.991758056640625,0.0839080810546875,-0.9903106689453125,0.074554443359375
1740033515236797200,10.001797119140624,0.0750885009765625,-0.9973907470703125,0.0775146484375
1740033515246836200,10.011836181640625,0.0850372314453125,-1.0093841552734375,0.063507080078125
1740033515256875000,10.021875,0.0945281982421875,-1.0178985595703125,0.0435333251953125
1740033515266914000,10.0319140625,0.06121826171875,-1.01171875,0.0135955810546875
1740033515276954000,10.0419541015625,0.0458221435546875,-1.0054473876953125,-0.004638671875
1740033515286992600,10.05199267578125,0.050994873046875,-1.0071258544921875,-0.003173828125
1740033515297031700,10.06203173828125,0.0604095458984375,-1.0181427001953125,0.027191162109375
1740033515307070500,10.072070556640625,0.0765838623046875,-1.024200439453125,0.06353759765625
1740033515317110500,10.082110595703124,0.07061767578125,-1.0099029541015625,0.08160400390625
1740033515327149600,10.092149658203125,0.0258026123046875,-0.9845123291015625,0.0803070068359375
1740033515337188600,10.102188720703126,-0.0496978759765625,-0.9569091796875,0.0500335693359375
1740033515347227600,10.1122275390625,-0.0288238525390625,-0.977203369140625,0.0236968994140625
1740033515357267700,10.122267822265625,0.064300537109375,-0.9879913330078125,0.064483642578125
1740033515367306500,10.132306396484376,0.08172607421875,-0.9687347412109375,0.1155853271484375
1740033515377345500,10.142345458984375,0.02716064453125,-1.0010528564453125,0.125274658203125
1740033515387384600,10.152384521484375,0.0139923095703125,-0.9648895263671875,0.1689910888671875
1740033515397424400,10.16242431640625,0.0782623291015625,-0.902557373046875,0.2569580078125
1740033515407463400,10.17246337890625,0.1739501953125,-0.9322357177734375,0.1949310302734375
1740033515417502700,10.182502685546876,-0.0955963134765625,-0.909454345703125,0.17919921875
1740033515427541500,10.19254150390625,0.0847320556640625,-1.05401611328125,-0.028717041015625
1740033515437580500,10.20258056640625,0.142059326171875,-1.1912841796875,-0.1051025390625
1740033515447620600,10.21262060546875,-0.0999298095703125,-1.024810791015625,-0.0613861083984375
1740033515457659400,10.222659423828125,-0.096160888671875,-0.92193603515625,0.0471038818359375
1740033515467698700,10.23269873046875,-0.100311279296875,-0.80841064453125,0.204254150390625
1740033515477737700,10.24273779296875,0.0401153564453125,-0.7653350830078125,0.3016204833984375
1740033515487777500,10.252777587890625,0.1351318359375,-0.84423828125,0.3304901123046875
1740033515497816600,10.262816650390626,0.2237396240234375,-0.94354248046875,0.2945404052734375
1740033515507855600,10.272855712890625,0.290252685546875,-0.987213134765625,0.2209930419921875
1740033515517894400,10.282894287109375,0.2880859375,-1.028656005859375,0.1253509521484375
1740033515527934500,10.2929345703125,0.274169921875,-1.086578369140625,0.005767822265625
1740033515537973800,10.302973876953125,0.24090576171875,-1.1196136474609375,-0.0498809814453125
1740033515548012500,10.313012451171875,0.2116241455078125,-1.1139068603515625,-0.1085205078125
1740033515558051600,10.323051513671874,0.1389617919921875,-1.1011962890625,-0.1748046875
1740033515568090600,10.333090576171875,-0.0267181396484375,-1.0680694580078125,-0.1962738037109375
1740033515578130400,10.34313037109375,-0.1399688720703125,-1.0175323486328125,-0.147857666015625
1740033515588169500,10.35316943359375,-0.1013641357421875,-0.9709930419921875,-0.098236083984375
1740033515598208800,10.363208740234375,-0.0755615234375,-0.8758544921875,-0.103668212890625
1740033515608247600,10.37324755859375,-0.028594970703125,-0.819091796875,-0.122528076171875
1740033515618287600,10.38328759765625,0.26824951171875,-0.8035125732421875,-0.078765869140625
1740033515628326700,10.39332666015625,0.54193115234375,-0.91802978515625,-0.0477142333984375
1740033515638365400,10.403365478515624,0.532257080078125,-1.0175628662109375,-0.067474365234375
1740033515648404500,10.413404541015625,0.5806121826171875,-1.0895843505859375,-0.1154632568359375
1740033515658444500,10.423444580078124,0.5233612060546875,-1.1523590087890625,-0.1454315185546875
1740033515668483600,10.433483642578125,0.170684814453125,-1.073638916015625,-0.1953887939453125
1740033515678522600,10.443522705078125,0.143768310546875,-0.96868896484375,-0.243194580078125
1740033515688561700,10.453561767578124,0.167755126953125,-0.894317626953125,-0.2947998046875
1740033515698601500,10.4636015625,0.1202239990234375,-0.87109375,-0.3013763427734375
1740033515708640500,10.473640625,0.141845703125,-0.9113922119140625,-0.279998779296875
1740033515718679600,10.483679443359375,0.104827880859375,-0.9771881103515625,-0.2624053955078125
1740033515728718600,10.493718505859375,0.1185760498046875,-1.0358428955078125,-0.237396240234375
1740033515738757600,10.503757568359376,0.2053985595703125,-1.0249786376953125,-0.207489013671875
1740033515748797700,10.513797607421875,0.3767242431640625,-1.0044708251953125,-0.1698150634765625
1740033515758836500,10.52383642578125,0.425079345703125,-1.001922607421875,-0.1324462890625
1740033515768875500,10.53387548828125,0.3181915283203125,-1.0012054443359375,-0.0984344482421875
1740033515778914600,10.54391455078125,0.244903564453125,-1.019378662109375,-0.064483642578125
1740033515788954600,10.55395458984375,0.180023193359375,-1.0129547119140625,-0.032440185546875
1740033515798993700,10.56399365234375,0.152862548828125,-1.00433349609375,-0.0316619873046875
1740033515809032700,10.57403271484375,0.1328582763671875,-0.990814208984375,-0.0303802490234375
1740033515819071500,10.584071533203126,0.133697509765625,-0.9220733642578125,-0.00677490234375
1740033515829111600,10.594111572265625,0.039337158203125,-0.87823486328125,-0.0124664306640625
1740033515839150600,10.604150634765626,0.082733154296875,-0.8950653076171875,-0.0102081298828125
1740033515849189600,10.614189697265624,0.1083831787109375,-0.904083251953125,-0.0199127197265625
1740033515859228700,10.624228759765625,0.285858154296875,-0.9720916748046875,-0.034271240234375
1740033515869268700,10.634268798828124,0.3414764404296875,-1.0405120849609375,-0.061431884765625
1740033515879307500,10.6443076171875,0.2351531982421875,-1.07269287109375,-0.0882110595703125
1740033515889346600,10.6543466796875,0.1525726318359375,-1.0871734619140625,-0.1264495849609375
1740033515899385300,10.66438525390625,0.0391693115234375,-1.063751220703125,-0.180633544921875
1740033515909424600,10.674424560546875,-0.0232391357421875,-1.034332275390625,-0.2198333740234375
1740033515919464700,10.684464599609376,0.0618743896484375,-0.9897918701171875,-0.2657012939453125
1740033515929503700,10.694503662109375,0.064544677734375,-0.920440673828125,-0.3026123046875
1740033515939542500,10.70454248046875,-0.3425140380859375,-0.9222869873046875,-0.3713226318359375
1740033515949581600,10.71458154296875,-0.5240325927734375,-1.0001068115234375,-0.4053497314453125
1740033515959621600,10.72462158203125,0.281219482421875,-1.0340728759765625,-0.29742431640625
1740033515969660400,10.734660400390625,0.6741790771484375,-1.017120361328125,-0.160064697265625
1740033515979699700,10.74469970703125,0.53076171875,-0.8884124755859375,0.2047576904296875
1740033515989738500,10.754738525390625,0.4979095458984375,-0.810302734375,0.51666259765625
1740033515999778600,10.764778564453126,0.6652679443359375,-0.92584228515625,0.31524658203125
1740033516009817600,10.774817626953125,0.6367340087890625,-1.117431640625,-0.004608154296875
1740033516019856400,10.7848564453125,0.577728271484375,-1.1570587158203125,-0.2026214599609375
1740033516029895400,10.7948955078125,0.4377593994140625,-1.0967864990234375,-0.3280029296875
1740033516039935500,10.804935546875,0.2918853759765625,-1.0305633544921875,-0.3335113525390625
1740033516049974800,10.814974853515626,0.2701416015625,-0.9945526123046875,-0.2438201904296875
1740033516060013600,10.825013671875,0.1621551513671875,-0.9826507568359375,-0.1362762451171875
1740033516070052600,10.835052490234375,0.052093505859375,-1.045074462890625,-0.167938232421875
1740033516080091400,10.84509130859375,0.1035614013671875,-1.1025848388671875,-0.2434539794921875
1740033516090131500,10.85513134765625,0.157501220703125,-1.073944091796875,-0.232940673828125
1740033516100170500,10.86517041015625,0.2033233642578125,-1.0047607421875,-0.1695404052734375
1740033516110209500,10.87520947265625,0.184173583984375,-0.937530517578125,-0.086395263671875
1740033516120248600,10.88524853515625,0.1463623046875,-0.8848114013671875,-0.0391998291015625
1740033516130288600,10.89528857421875,0.0023040771484375,-0.92120361328125,-0.06494140625
1740033516140327400,10.905327392578124,0.0848388671875,-1.0037994384765625,-0.1686553955078125
1740033516150366500,10.915366455078125,0.1413726806640625,-0.921875,-0.2121429443359375
1740033516160405800,10.92540576171875,0.3951416015625,-0.9988250732421875,-0.1876068115234375
1740033516170445600,10.935445556640625,0.333526611328125,-1.0524749755859375,-0.14691162109375
1740033516180484600,10.945484619140625,0.1213226318359375,-1.03167724609375,-0.153076171875
1740033516190523600,10.955523681640624,0.0008544921875,-1.041839599609375,-0.1464385986328125
1740033516200562400,10.9655625,0.002349853515625,-0.989013671875,-0.12225341796875
1740033516210602500,10.9756025390625,-0.011444091796875,-0.890289306640625,-0.067352294921875
1740033516220641500,10.9856416015625,0.087158203125,-0.865447998046875,0.018829345703125
1740033516230680600,10.9956806640625,0.024810791015625,-0.852264404296875,0.0246429443359375
1740033516240719600,11.0057197265625,-0.002899169921875,-0.8484039306640625,0.0858917236328125
1740033516250758700,11.015758544921875,0.134979248046875,-1.0104217529296875,0.1781158447265625
1740033516260798500,11.025798583984376,0.13946533203125,-1.063323974609375,0.1908721923828125
1740033516270837500,11.03583740234375,-0.02569580078125,-1.01336669921875,0.18133544921875
1740033516280876500,11.04587646484375,-0.2000579833984375,-0.9732818603515625,0.1605682373046875
1740033516290915800,11.055915771484376,-0.311187744140625,-0.9601287841796875,0.083099365234375
1740033516300955600,11.06595556640625,-0.2442474365234375,-0.9500274658203125,-0.0539703369140625
1740033516310994700,11.07599462890625,-0.212615966796875,-0.906585693359375,-0.1571502685546875
1740033516321033700,11.08603369140625,-0.055755615234375,-0.9300384521484375,-0.16796875
1740033516331072500,11.096072509765625,-0.010284423828125,-0.9108734130859375,-0.08660888671875
1740033516341112600,11.106112548828126,-0.052337646484375,-0.9066162109375,-0.02593994140625
1740033516351151600,11.116151611328124,-0.0201568603515625,-0.9485015869140625,-0.045196533203125
1740033516361190700,11.126190673828125,-0.0208892822265625,-1.0039215087890625,-0.1270751953125
1740033516371229700,11.136229736328126,-0.0866241455078125,-1.0326080322265625,-0.212615966796875
1740033516381269800,11.146269775390625,-0.07537841796875,-1.02960205078125,-0.272705078125
1740033516391308500,11.15630859375,-0.03253173828125,-1.00177001953125,-0.270782470703125
1740033516401347600,11.16634765625,0.001495361328125,-0.9624176025390625,-0.1632232666015625
1740033516411386600,11.17638671875,0.0218658447265625,-0.933197021484375,-0.0176544189453125
1740033516421425700,11.18642578125,-0.0135345458984375,-0.8892364501953125,0.056915283203125
1740033516431465700,11.1964658203125,-0.031585693359375,-0.87530517578125,0.0751800537109375
1740033516441504800,11.2065048828125,0.0057525634765625,-0.887969970703125,0.0683441162109375
1740033516451543600,11.21654345703125,0.0330810546875,-0.8835906982421875,0.056793212890625
1740033516461582600,11.22658251953125,-0.035552978515625,-0.8809814453125,0.03851318359375
1740033516471622700,11.23662255859375,-0.0889739990234375,-0.8666839599609375,-0.01263427734375
1740033516481661400,11.246661376953124,-0.031005859375,-0.86444091796875,-0.1171875
1740033516491700700,11.25670068359375,-0.004119873046875,-0.8647003173828125,-0.171630859375
1740033516501739800,11.26673974609375,0.0658111572265625,-0.93963623046875,-0.2164459228515625
1740033516511779600,11.276779541015625,0.2176055908203125,-1.0159759521484375,-0.2120361328125
1740033516521818600,11.286818603515625,0.340118408203125,-1.0862884521484375,-0.1850433349609375
1740033516531857700,11.296857666015624,0.3231658935546875,-1.1990203857421875,-0.268310546875
1740033516541896700,11.306896728515625,0.3379974365234375,-1.325225830078125,-0.3493804931640625
1740033516551936500,11.3169365234375,0.2691192626953125,-1.319183349609375,-0.3848876953125
1740033516561975800,11.326975830078124,0.072479248046875,-1.1666412353515625,-0.4087066650390625
1740033516572014600,11.3370146484375,0.0447540283203125,-1.0242767333984375,-0.4037628173828125
1740033516582053600,11.3470537109375,0.1327667236328125,-0.981048583984375,-0.3576812744140625
1740033516592092700,11.3570927734375,0.1866607666015625,-0.961273193359375,-0.31634521484375
1740033516602132500,11.367132568359375,0.27606201171875,-0.9382476806640625,-0.2610015869140625
1740033516612171800,11.377171875,0.4475860595703125,-0.9168243408203125,-0.1705322265625
1740033516622210800,11.3872109375,0.6197357177734375,-0.92919921875,-0.0802001953125
1740033516632249600,11.39724951171875,0.6134033203125,-0.934234619140625,-0.079925537109375
1740033516642289700,11.40728955078125,0.21044921875,-1.008575439453125,-0.169830322265625
1740033516652328700,11.41732861328125,-0.223388671875,-1.1108245849609375,-0.232452392578125
1740033516662367500,11.427367431640626,-0.3958282470703125,-1.0784912109375,-0.2018280029296875
1740033516672406800,11.43740673828125,-0.2194366455078125,-0.9490814208984375,-0.0661468505859375
1740033516682446600,11.447446533203125,0.064117431640625,-0.8065185546875,0.001251220703125
1740033516692485600,11.457485595703124,0.377655029296875,-0.77972412109375,-0.1005401611328125
1740033516702524700,11.467524658203125,0.617645263671875,-0.86083984375,-0.2002105712890625
1740033516712563700,11.477563720703126,0.326019287109375,-0.96478271484375,-0.25372314453125
1740033516722603500,11.487603515625,-0.0071563720703125,-1.01226806640625,-0.15570068359375
1740033516732642600,11.497642578125,-0.189422607421875,-1.036376953125,-0.147064208984375
1740033516742681900,11.507681884765624,-0.1668548583984375,-0.9523468017578125,-0.1283111572265625
1740033516752720600,11.517720703125,0.000640869140625,-0.924530029296875,-0.1727294921875
1740033516762759700,11.527759765625,0.1835479736328125,-1.0153961181640625,-0.29022216796875
1740033516772799700,11.5377998046875,0.3779754638671875,-1.0501556396484375,-0.3324737548828125
1740033516782838500,11.547838623046875,0.324859619140625,-1.068695068359375,-0.3274078369140625
1740033516792877600,11.557877685546876,0.0801849365234375,-1.022125244140625,-0.3195343017578125
1740033516802916900,11.567916748046875,-0.1021728515625,-0.93243408203125,-0.19647216796875
1740033516812956700,11.577956787109375,-0.074737548828125,-0.9253082275390625,-0.1721649169921875
1740033516822995700,11.58799560546875,0.021453857421875,-0.972198486328125,-0.1752471923828125
1740033516833034800,11.59803466796875,0.087249755859375,-1.022857666015625,-0.145660400390625
1740033516843073500,11.608073486328125,0.2266998291015625,-1.0230560302734375,-0.1106719970703125
1740033516853113600,11.618113525390624,0.2734832763671875,-0.988037109375,-0.041748046875
1740033516863152600,11.628152587890625,0.1895751953125,-0.99462890625,-0.012908935546875
1740033516873191700,11.638191650390626,0.090911865234375,-1.022125244140625,-0.03778076171875
1740033516883230700,11.648230712890625,0.0511016845703125,-1.020355224609375,-0.0301055908203125
1740033516893270800,11.658270751953125,0.06103515625,-0.9936981201171875,-0.006622314453125
1740033516903309600,11.6683095703125,0.088287353515625,-1.0056610107421875,-0.03778076171875
1740033516913348600,11.6783486328125,0.2221221923828125,-0.9896240234375,-0.0939788818359375
1740033516923387600,11.6883876953125,0.29071044921875,-0.9396209716796875,-0.144622802734375
1740033516933426700,11.6984267578125,0.1367034912109375,-0.94525146484375,-0.127044677734375
1740033516943466800,11.708466796875,0.037933349609375,-0.978729248046875,-0.060302734375
1740033516953505800,11.718505859375,0.0879669189453125,-0.995635986328125,-0.021209716796875
1740033516963544600,11.728544677734375,0.1302642822265625,-1.013275146484375,-0.016326904296875
1740033516973583600,11.73858349609375,0.127471923828125,-1.026153564453125,-0.0673828125
1740033516983623700,11.748623779296874,0.1181793212890625,-1.03167724609375,-0.13446044921875
1740033516993662700,11.758662841796875,0.166534423828125,-0.999420166015625,-0.08221435546875
1740033517003701800,11.76870166015625,0.1698760986328125,-0.915802001953125,-0.02655029296875
1740033517013740500,11.778740478515624,0.143951416015625,-0.879974365234375,0.0378875732421875
1740033517023780600,11.788780517578125,0.09326171875,-0.9357452392578125,0.059478759765625
1740033517033819600,11.798819580078124,0.081817626953125,-1.03167724609375,0.0406951904296875
1740033517043858700,11.808858642578125,0.1130218505859375,-1.0969696044921875,-0.031463623046875
1740033517053897700,11.818897705078125,0.17840576171875,-1.1078033447265625,-0.0557098388671875
1740033517063937800,11.828937744140624,0.10089111328125,-1.0475006103515625,-0.0302276611328125
1740033517073976800,11.838976806640625,0.02056884765625,-0.97576904296875,-0.026123046875
1740033517084015600,11.849015625,0.082794189453125,-0.9452972412109375,0.0287322998046875
1740033517094054700,11.8590546875,0.1500244140625,-0.94573974609375,0.103118896484375
1740033517104093400,11.869093505859375,0.204498291015625,-0.9192657470703125,0.1520843505859375
1740033517114133500,11.879133544921874,0.231964111328125,-0.910552978515625,0.09185791015625
1740033517124172800,11.8891728515625,0.2301483154296875,-0.9867706298828125,-0.07318115234375
1740033517134211600,11.899211669921876,0.231781005859375,-1.077301025390625,-0.146240234375
1740033517144250600,11.909250732421874,0.0878753662109375,-1.065399169921875,-0.1235198974609375
1740033517154290700,11.919290771484375,0.021087646484375,-1.018829345703125,-0.0606231689453125
1740033517164329700,11.929329833984376,0.0738983154296875,-1.0133056640625,0.0468902587890625
1740033517174368500,11.939368408203125,0.067230224609375,-1.02471923828125,0.116943359375
1740033517184407800,11.94940771484375,0.0937652587890625,-1.013397216796875,0.097442626953125
1740033517194448000,11.95944775390625,0.164764404296875,-0.9743499755859375,0.082977294921875
1740033517204486700,11.969486572265625,0.2427520751953125,-0.93280029296875,0.1018524169921875
1740033517214525700,11.979525634765626,0.2271728515625,-0.918975830078125,0.0836944580078125
1740033517224564500,11.989564453125,0.1933441162109375,-0.9500274658203125,0.038848876953125
1740033517234604500,11.9996044921875,0.2186431884765625,-0.9848175048828125,0.036407470703125
1740033517244643600,12.0096435546875,0.1669921875,-0.9977569580078125,0.0396575927734375
1740033517254682600,12.0196826171875,0.0962371826171875,-0.9942626953125,0.0048980712890625
1740033517264721700,12.0297216796875,0.04412841796875,-0.993408203125,-0.026611328125
1740033517274760700,12.0397607421875,0.1062469482421875,-1.0001220703125,-0.0003509521484375
1740033517284800800,12.04980078125,0.1734466552734375,-1.0289306640625,0.0722503662109375
1740033517294840300,12.05984033203125,0.1463775634765625,-1.03741455078125,0.11639404296875
1740033517304879000,12.069879150390625,0.1143035888671875,-1.0050201416015625,0.0756683349609375
1740033517314918400,12.07991845703125,0.06231689453125,-0.9798126220703125,-0.0465545654296875
1740033517324958200,12.089958251953124,0.03411865234375,-1.0135498046875,0.02496337890625
1740033517334997200,12.099997314453125,0.03680419921875,-1.037994384765625,0.1226043701171875
1740033517345036300,12.110036376953126,0.19415283203125,-0.9949188232421875,0.112213134765625
1740033517355075300,12.120075439453124,0.297454833984375,-1.00604248046875,0.1228485107421875
1740033517365115100,12.130115234375,0.2342681884765625,-1.0198516845703125,0.0555877685546875
1740033517375154200,12.140154296875,0.140045166015625,-0.98187255859375,-0.0624847412109375
1740033517385193500,12.150193359375,0.071075439453125,-0.941558837890625,-0.1866302490234375
1740033517395232300,12.160232177734375,0.0461883544921875,-0.9283599853515625,-0.2970123291015625
1740033517405272300,12.170272216796874,0.11920166015625,-0.9364471435546875,-0.239349365234375
1740033517415311400,12.180311279296875,0.1700592041015625,-0.9861297607421875,-0.0676116943359375
1740033517425350100,12.19035009765625,0.2017059326171875,-1.0448150634765625,0.073333740234375
1740033517435389200,12.20038916015625,0.134765625,-1.0429229736328125,0.1850128173828125
1740033517445428500,12.210428466796875,0.0572509765625,-0.9853057861328125,0.22991943359375
1740033517455468300,12.22046826171875,0.1118927001953125,-0.94293212890625,0.180206298828125
1740033517465507300,12.23050732421875,0.1773834228515625,-0.9576263427734375,0.1017913818359375
1740033517475546400,12.24054638671875,0.221099853515625,-0.9713287353515625,0.049652099609375
1740033517485585200,12.250585205078124,0.148468017578125,-0.9819183349609375,0.0158843994140625
1740033517495625200,12.260625244140625,0.0781402587890625,-1.0010223388671875,-0.003326416015625
1740033517505664300,12.270664306640626,0.1055908203125,-1.011688232421875,-0.020233154296875
1740033517515703300,12.280703369140625,0.13238525390625,-1.0248870849609375,-0.053466796875
1740033517525742300,12.290742431640625,0.226165771484375,-1.00433349609375,-0.0827484130859375
1740033517535782400,12.300782470703124,0.222625732421875,-0.9783782958984375,-0.1121978759765625
1740033517545821200,12.3108212890625,0.1094970703125,-0.97796630859375,-0.1156768798828125
1740033517555860200,12.320860107421876,0.08026123046875,-0.970703125,-0.080902099609375
1740033517565899300,12.330899169921874,0.08160400390625,-0.96337890625,0.0149383544921875
1740033517575938300,12.340938232421875,0.0926513671875,-0.9820556640625,0.0675506591796875
1740033517585978400,12.350978271484376,0.132049560546875,-0.9994049072265625,0.0163421630859375
1740033517596017400,12.361017333984375,0.2298583984375,-0.9727020263671875,-0.0356292724609375
1740033517606056200,12.37105615234375,0.1930694580078125,-0.959503173828125,-0.0968170166015625
1740033517616095200,12.38109521484375,0.0417633056640625,-0.9635162353515625,-0.089874267578125
1740033517626135300,12.39113525390625,0.1413421630859375,-0.9475555419921875,0.022064208984375
1740033517636174000,12.401174072265626,0.1431732177734375,-0.9926605224609375,0.05694580078125
1740033517646213400,12.41121337890625,0.2415618896484375,-1.030487060546875,0.0562896728515625
1740033517656252400,12.42125244140625,0.1644439697265625,-1.0619659423828125,-0.000244140625
1740033517666292200,12.431292236328124,0.1431427001953125,-1.0426788330078125,-0.1186370849609375
1740033517676331300,12.441331298828125,0.15338134765625,-1.00457763671875,-0.222320556640625
1740033517686370300,12.451370361328125,0.0018157958984375,-0.936309814453125,-0.2776641845703125
1740033517696409300,12.461409423828124,-0.1123504638671875,-0.926055908203125,-0.2003936767578125
1740033517706449200,12.47144921875,0.133880615234375,-0.9563140869140625,-0.0659637451171875
1740033517716488400,12.481488525390626,0.27490234375,-1.0072021484375,0.083465576171875
1740033517726527200,12.49152734375,0.2221527099609375,-1.0326995849609375,0.1796112060546875
1740033517736566300,12.501566162109375,0.14093017578125,-1.0217742919921875,0.186279296875
1740033517746606300,12.5116064453125,0.12445068359375,-0.9746246337890625,0.074798583984375
1740033517756645000,12.52164501953125,0.142425537109375,-0.9475860595703125,-0.0351104736328125
1740033517766684400,12.531684326171876,0.1187286376953125,-0.98101806640625,-0.072357177734375
1740033517776723500,12.541723388671874,0.071136474609375,-1.016815185546875,-0.0457916259765625
1740033517786762200,12.55176220703125,0.1003265380859375,-1.0013885498046875,-0.000579833984375
1740033517796802300,12.56180224609375,0.105224609375,-0.982940673828125,0.0325775146484375
1740033517806841300,12.57184130859375,0.1177520751953125,-0.961669921875,0.039764404296875
1740033517816880000,12.581880126953125,0.16668701171875,-0.9382476806640625,0.0037841796875
1740033517826919400,12.59191943359375,0.2262420654296875,-0.9708251953125,-0.0164337158203125
1740033517836959500,12.60195947265625,0.161773681640625,-1.0142059326171875,-0.022430419921875
1740033517846998300,12.611998291015626,0.112823486328125,-1.0210418701171875,-0.0178375244140625
1740033517857037300,12.622037353515625,0.0471954345703125,-0.980560302734375,-0.0513916015625
1740033517867076000,12.632076171875,0.0147857666015625,-0.9541473388671875,-0.0734405517578125
1740033517877116200,12.6421162109375,0.003509521484375,-0.95269775390625,-0.094940185546875
1740033517887155200,12.6521552734375,0.225067138671875,-0.99359130859375,-0.1073150634765625
1740033517897194500,12.662194580078125,0.38629150390625,-1.0662994384765625,-0.115234375
1740033517907233300,12.6722333984375,0.352264404296875,-1.0376129150390625,-0.124237060546875
1740033517917273300,12.6822734375,0.3718414306640625,-1.0179595947265625,-0.1165008544921875
1740033517927312400,12.6923125,0.242462158203125,-0.98486328125,-0.1042633056640625
1740033517937351200,12.70235107421875,0.145294189453125,-0.9885711669921875,-0.1051177978515625
1740033517947390200,12.71239013671875,0.1468048095703125,-1.02056884765625,-0.112152099609375
1740033517957429200,12.72242919921875,0.1778106689453125,-1.033111572265625,-0.1051025390625
1740033517967469300,12.73246923828125,0.1955108642578125,-0.9963226318359375,-0.05670166015625
1740033517977508400,12.74250830078125,0.1387481689453125,-0.981842041015625,-0.007171630859375
1740033517987547100,12.752547119140624,0.21112060546875,-1,-0.0255279541015625
1740033517997586200,12.762586181640625,0.3014068603515625,-0.9920806884765625,-0.0665435791015625
1740033518007626200,12.772626220703126,0.1770782470703125,-0.9788360595703125,-0.1011810302734375
1740033518017665300,12.782665283203125,-0.0445556640625,-0.9638824462890625,-0.1271514892578125
1740033518027704300,12.792704345703125,-0.18682861328125,-0.9304656982421875,-0.145050048828125
1740033518037743400,12.802743408203124,-0.155303955078125,-0.9409332275390625,-0.171356201171875
1740033518047783400,12.812783447265625,0.17852783203125,-0.930999755859375,-0.1018218994140625
1740033518057822200,12.822822265625,0.405059814453125,-0.979217529296875,-0.0559234619140625
1740033518067861200,12.832861328125,0.4441070556640625,-1.03375244140625,-0.1118621826171875
1740033518077900300,12.842900390625,0.3156585693359375,-1.0577239990234375,-0.1215972900390625
1740033518087939300,12.852939208984376,0.129547119140625,-1.0318603515625,-0.0807647705078125
1740033518097979400,12.8629794921875,-0.0017242431640625,-1.011444091796875,-0.00360107421875
1740033518108018200,12.87301806640625,-0.0394134521484375,-0.978240966796875,0.0194091796875
1740033518118057200,12.88305712890625,0.06341552734375,-0.962432861328125,0.0119171142578125
1740033518128096300,12.89309619140625,0.1595001220703125,-1.006927490234375,0.0158843994140625
1740033518138136300,12.90313623046875,0.2974395751953125,-0.9686126708984375,-0.0705108642578125
1740033518148175400,12.91317529296875,0.218719482421875,-0.88519287109375,-0.1773223876953125
1740033518158214400,12.92321435546875,0.006744384765625,-0.8954620361328125,-0.28265380859375
