time,seconds_elapsed,z,y,x
1740039582427857200,0.020857177734375,0.3190554282665253,0.13900339702069758,-0.24436317537575958
1740039582437897200,0.030897216796875,0.21767536719739436,-0.06252513749599456,-0.16453414411842823
1740039582447937300,0.040937255859375,0.38486967043578624,-0.16704115850329398,-0.13425327988415955
1740039582457976300,0.050976318359375,0.254720611000061,-0.12978899395167826,-0.16968115161806344
1740039582468016000,0.06101611328125,0.353178062620759,0.23679624725282192,0.1784630084887147
1740039582478055200,0.07105517578125,0.2720797420799732,0.5965098491221666,0.3846203718498349
1740039582488095200,0.08109521484375,0.2746510538727045,0.8131096960425377,0.5591130154028534
1740039582498134000,0.091134033203125,0.8886293396681547,0.910639511424303,1.0652487661167978
1740039582508174000,0.101174072265625,1.3223673781692982,1.4627192671895026,1.800759966433048
1740039582518214100,0.111214111328125,0.7526613648205995,1.5006787032276392,1.9859803402274845
1740039582528253400,0.12125341796875,0.2673351779013872,1.2290788536190986,1.9041124966189265
1740039582538293200,0.131293212890625,-0.21269407165348528,0.5208826534688472,1.1721370692133903
1740039582548332300,0.141332275390625,-0.9879518836855887,-0.13227321198284625,0.5033376444280148
1740039582558372400,0.151372314453125,-0.8615461024314165,-0.02790858214497566,0.3470680553078651
1740039582568411400,0.161411376953125,-0.38280630816519257,0.4120043455988168,0.5537509038478136
1740039582578451200,0.171451171875,0.2805985641002655,1.042357427611947,1.318926882326603
1740039582588491300,0.1814912109375,0.45655075881183144,1.5512866084367036,1.7301929767787456
1740039582598530300,0.1915302734375,0.1835889732003212,1.4145909038364886,1.857033057796955
1740039582608570400,0.2015703125,-0.4240469578310847,0.6710650316298008,1.40076871471107
1740039582618609200,0.211609130859375,-1.58991766012609,-0.5388163695663214,0.5150993938922882
1740039582628649200,0.221649169921875,-2.7448025657653807,-1.7551427091181278,-0.29009061506688594
1740039582638688300,0.231688232421875,-1.9199600540921091,-1.382234110110998,-0.8087474091798067
1740039582648728300,0.241728271484375,-0.7264490651994944,0.204449390399456,-0.14208032024800776
1740039582658768100,0.25176806640625,-0.649879912520945,0.8734335241019725,0.8398620938897132
1740039582668807200,0.26180712890625,-0.3117436439484358,0.18384382474422453,1.0274573801219462
1740039582678847200,0.27184716796875,-0.5109615634351968,-0.31885902891159057,0.43160687169134615
1740039582688886300,0.28188623046875,-0.3700295364394784,-0.18554945961833,-0.6614291882783174
1740039582698926300,0.29192626953125,0.09878653744459151,-0.045920039653778076,-1.2681231622844933
1740039582708965400,0.30196533203125,-0.4516816914707422,-0.547424038913846,-1.6298539491951465
1740039582719005400,0.31200537109375,0.3583323766440153,-0.08587444890141487,-3.1744395986884832
1740039582729045200,0.322045166015625,2.2740756898239254,0.3342120808660984,-4.001337581586838
1740039582739084300,0.332084228515625,1.9136089314997196,-0.009841595056653022,-1.9121224923342466
1740039582749124400,0.342124267578125,2.443868485122919,0.5066723418086767,0.03817804722487926
1740039582759163100,0.3521630859375,2.047241449137032,0.9478846617132425,0.827245773422718
1740039582769203200,0.362203125,0.9013564270332455,1.1147761826127767,0.8682914850383996
1740039582779243300,0.3722431640625,-0.2436860067665577,0.7727338465124368,0.631532062664628
1740039582789282300,0.3822822265625,-2.2434294994086024,0.5494990916222333,1.2507003183186054
1740039582799322400,0.392322265625,-4.211633944448828,-0.13868541711270807,1.3689672167807816
1740039582809361200,0.402361083984375,-2.862805844855308,-0.6793892078608275,0.17318682165145874
1740039582819401200,0.412401123046875,-2.1332893549092113,0.22353870627284048,0.14678162980675696
1740039582829440300,0.422440185546875,-2.7351199606627223,0.049966100174188614,-0.4919523270606994
1740039582839480000,0.43247998046875,-1.0810166824825107,0.3967559230625629,-0.05993453648090362
1740039582849520000,0.44252001953125,-0.4336643887430429,1.5413544124871492,0.6410439873754977
1740039582859559400,0.452559326171875,-2.503334235048294,3.3038533295869827,1.701916730365157
1740039582869599200,0.46259912109375,-2.082715205839276,3.075312869504094,-0.9162526751309633
1740039582879638300,0.47263818359375,1.323031395035982,1.4338491465359926,0.3927601314246654
1740039582889678300,0.48267822265625,0.7305109808761626,1.7278689177453517,0.9198229348331689
1740039582899717400,0.49271728515625,0.7341459033124148,1.5238503199785947,0.5170142876029015
1740039582909757200,0.502757080078125,-0.8533997669853269,0.9810539408653974,2.2528572529673574
1740039582919797200,0.51279736328125,-2.670280116483569,1.0520938087284564,4.228040889370441
1740039582929836300,0.522836181640625,-0.8722193260066211,1.5787375099420546,2.6958406741976737
1740039582939876400,0.53287646484375,0.5266388789080083,1.9155542203485965,2.2155384529203177
1740039582949915100,0.5429150390625,0.569084082058072,2.137628699287772,1.9680062921196222
1740039582959955200,0.552955078125,0.13940160255804657,1.9753800357580185,2.025804985615611
1740039582969994200,0.562994140625,-0.7601414914429188,1.278019702398777,2.572904614880681
1740039582980034300,0.573034423828125,-1.5000722617670892,0.5596446380615234,3.358911199942231
1740039582990074000,0.58307421875,-1.6712191020235418,0.1684738216549158,3.2930180473178625
1740039583000113200,0.593113037109375,-1.2446242132753134,-0.04463438375741243,2.423192776840925
1740039583010153200,0.6031533203125,-0.5692421952292323,-0.36475218055844305,1.2292115400880574
1740039583020192300,0.613192138671875,-0.05875380226373672,-0.6879062763154506,-0.46588265078067775
1740039583030232000,0.623232177734375,-0.06596446429491043,-1.0122355533316731,-1.8362223249584435
1740039583040271400,0.633271240234375,-0.24713936209082601,-1.5193445329919457,-2.7068098119795323
1740039583050311400,0.6433115234375,-1.1429717650055884,-1.6420803935617208,-3.043898325064778
1740039583060351500,0.6533515625,-1.9343775787621735,-1.5757076407268642,-2.9338983196884394
1740039583070390300,0.663390380859375,-1.0053472551226614,-1.0675403841853142,-3.0720494837939736
1740039583080430300,0.673430419921875,0.6220312438696622,0.22026275334209203,-3.5117291873037813
1740039583090469400,0.683469482421875,1.905169019934535,0.8162213983222841,-3.685815003621578
1740039583100509200,0.69350927734375,2.208761506131291,0.06727174750119447,-3.3325819959431886
1740039583110548200,0.70354833984375,1.7013269477784632,-0.9787531165771186,-2.857465068349242
1740039583120587800,0.713587890625,0.929765067654848,-1.2789119750633835,-2.7037077543109653
1740039583130627800,0.7236279296875,0.05643208131790161,-1.0316475252881645,-2.6368045478612183
1740039583140666600,0.73366650390625,-0.6309305896401405,-0.823850431896001,-2.325806753844023
1740039583150706700,0.743706787109375,-0.780797910502553,-0.9918043213300406,-1.9364888718277216
1740039583160746000,0.75374609375,-0.5233066657453775,-1.1247767676234244,-1.7021455706849693
1740039583170785800,0.763785888671875,0.09818331085443496,-0.7313532038539647,-1.4916051699340342
1740039583180824800,0.773824951171875,0.6929296574354171,-0.45366950428709385,-1.680588403393328
1740039583190865000,0.783864990234375,1.1407353842556476,-0.3284432882063091,-1.6294006524696945
1740039583200905000,0.793905029296875,0.9563701659858226,-0.5758695044144988,-1.143968374827504
1740039583210944000,0.803944091796875,0.17125439228415487,-1.0697738423258065,-0.6526584373235702
1740039583220983800,0.81398388671875,-0.5820224740862846,-1.1721638110898434,-0.34565935755372046
1740039583231022800,0.82402294921875,-0.9456944581925868,-0.9084878863483666,-0.04867781392931938
1740039583241063000,0.83406298828125,-0.9311679201900959,-0.5662187557548284,0.23235329636931418
1740039583251101700,0.844101806640625,-0.7522685661107301,-0.42382834664434194,0.29191636918932196
1740039583261141800,0.854141845703125,-0.7718108864486217,-0.4079474714234471,0.366290934433043
1740039583271181800,0.864181884765625,-0.6506435903698206,-0.3038634120926261,0.5374082563340664
1740039583281220900,0.874220947265625,-0.5346574963212013,-0.13674042052477597,0.5439306438401341
1740039583291260700,0.8842607421875,-0.4972872583478689,-0.054726738704741,0.39807781931608915
1740039583301299700,0.8942998046875,-0.24391397030353545,-0.10914221950322389,0.20874913341999052
1740039583311339800,0.90433984375,-0.14580606277287006,-0.14182751453071832,0.25240590431690213
1740039583321379000,0.914379150390625,-0.08034779443442822,-0.1446270821213722,0.2626923205316067
1740039583331419000,0.9244189453125,-0.010440729993581772,-0.10610738185197115,0.30345453903079034
1740039583341458700,0.934458740234375,0.026547815185785292,-0.18836071764677761,0.37455695073604584
1740039583351498000,0.944498046875,0.010203998628258704,-0.2395978606700897,0.16285189011991022
1740039583361538000,0.9545380859375,0.0455745872169733,-0.026292963641881942,-0.08029518746435642
1740039583371576800,0.964576904296875,0.05793897874951362,0.01733487342149019,-0.16965689395964145
1740039583381617000,0.974616943359375,-0.10943301914334297,-0.20685557475835084,-0.2686132350131869
1740039583391657000,0.984656982421875,-0.19160218378603458,-0.46321197026669975,-0.5037570388838648
1740039583401695700,0.99469580078125,-0.1714104596287012,-0.3883265328913927,-0.5867655769601464
1740039583411735800,1.00473583984375,-0.03425415177941322,-0.1489826469823718,-0.5286442273810505
1740039583421774800,1.01477490234375,0.2653442963451147,-0.14315467148125172,-0.572424332396686
1740039583431815000,1.02481494140625,0.46206630736291404,-0.3016650252655148,-0.742725661739707
1740039583441853700,1.034853759765625,0.5490571930736303,-0.4575882851660251,-0.8086398571521043
1740039583451893800,1.044893798828125,0.5298679239571095,-0.41361382662206886,-0.6856397926881909
1740039583461933800,1.054933837890625,0.3784410986930132,-0.38719343720823524,-0.657612260338664
1740039583471972900,1.064972900390625,0.10314765526354312,-0.5551747991710901,-0.6343652402639388
1740039583482012700,1.0750126953125,-0.19240414781868456,-0.6825514712840318,-0.4304664694845676
1740039583492051700,1.0850517578125,-0.4551823930680752,-0.6507379906550049,-0.31583938882946966
1740039583502091800,1.095091796875,-0.5720785876989364,-0.4377195093527436,-0.4020923156544566
1740039583512130800,1.105130859375,-0.40320729115903375,-0.1513055369719863,-0.5026031926736235
1740039583522171000,1.1151708984375,-0.05159457815885544,-0.19245120183080433,-0.5976736322045326
1740039583532211000,1.1252109375,0.19220365681052207,-0.4514250863611698,-0.694576840120554
1740039583542250000,1.13525,0.3116244014829397,-0.515797313028574,-0.6176999366670847
1740039583552289800,1.145289794921875,0.3475456096917391,-0.5126794732689857,-0.6198059690356255
1740039583562328800,1.155328857421875,0.20959084494113922,-0.4648147292882204,-0.6894464914947748
1740039583572369000,1.165368896484375,0.02446224108338356,-0.3815905026346445,-0.5452881959289312
1740039583582408000,1.175407958984375,-0.18168343183994293,-0.36372342203259467,-0.4378127405941486
1740039583592447700,1.18544775390625,-0.3631815702408552,-0.24919454105496405,-0.4202273995429277
1740039583602487800,1.19548779296875,-0.46216158443093297,-0.11998714638352394,-0.2567725750938058
1740039583612526800,1.20552685546875,-0.691596363005042,-0.31427111659944057,-0.0503913398489356
1740039583622567000,1.21556689453125,-0.9847668239086865,-0.48176118791401384,0.060819502621889114
1740039583632605700,1.225605712890625,-1.1167296547681091,-0.34876667591929433,0.14577216050326824
1740039583642645800,1.235645751953125,-0.9988391884028911,-0.16578911261558532,0.2830696303889155
1740039583652684800,1.245684814453125,-0.7202788521319627,-0.05351590161025524,0.41481472684442994
1740039583662724600,1.255724609375,-0.40076691226959227,0.14634908360838889,0.4338122727811336
1740039583672764700,1.2657646484375,-0.10363163938820362,0.3930453781068325,0.4415440360769629
1740039583682804000,1.275803955078125,0.04311375006139278,0.4711310728281736,0.5409779315143823
1740039583692844000,1.285843994140625,0.05850421141684055,0.4525999753594398,0.5142255336672067
1740039583702882800,1.2958828125,0.12366086646020412,0.4437783710002899,0.421439113420248
1740039583712923000,1.3059228515625,0.11966858195364474,0.369936889719963,0.33545798927396536
1740039583722962000,1.3159619140625,-0.019541151294112203,0.25441315248608587,0.20444529874622822
1740039583733002000,1.326001953125,-0.14448270521461962,0.33807050985991954,0.16799042205214498
1740039583743041800,1.336041748046875,-0.27213819426894187,0.3424368883758783,0.2881213608205318
1740039583753080800,1.346080810546875,-0.4197106821924448,0.17279869911670684,0.407015159009397
1740039583763121000,1.356120849609375,-0.45005847418308254,0.3640595221191644,0.2833300348907709
1740039583773159700,1.36615966796875,-0.24257307708859444,0.6586147153794765,0.21205138983577487
1740039583783199700,1.37619970703125,0.014867314264178276,0.6894581819325685,0.19677374120503663
1740039583793238800,1.38623876953125,0.23115268840789793,0.5876847376316785,0.19917992556393146
1740039583803278800,1.39627880859375,0.3698158936887979,0.6694254477292298,0.14179478130489587
1740039583813318700,1.406318603515625,0.4090700457125902,0.7506319048196077,0.020366788463294504
1740039583823357700,1.416357666015625,0.3505547283798456,0.6632862143218516,-0.10346738873720168
1740039583833397800,1.426397705078125,0.323332374933362,0.4737959081232547,-0.27571196110248564
1740039583843436800,1.436436767578125,0.3270575329363346,0.5087497326046229,-0.301817585478723
1740039583853476900,1.446476806640625,0.31906361157298085,0.4586006770789623,-0.4138856293007731
1740039583863517000,1.456516845703125,0.3929518546044826,0.33532501054406166,-0.6042223231956363
1740039583873556000,1.466555908203125,0.4932692548781633,0.32894027794301506,-0.6053755848839879
1740039583883596000,1.476595947265625,0.5413502719581127,0.42266660938858985,-0.4981304311737418
1740039583893634800,1.486634765625,0.4476023132026195,0.5997007541179656,-0.6384785208016633
1740039583903675000,1.4966748046875,0.7445791806519031,0.6827507932484149,-0.8594660812869668
1740039583913714000,1.5067138671875,1.1130606108665466,0.6251245337098836,-0.9534443416669964
1740039583923753700,1.516753662109375,0.7846680299341678,0.35019174028635025,-1.0306810183435677
1740039583933793800,1.526793701171875,-0.23429390904307365,0.2696446238875389,-0.7926698423430323
1740039583943832800,1.536832763671875,-0.5664169086754322,0.6242313842624425,-0.2822419473931193
1740039583953873000,1.546872802734375,-1.019932245314121,0.8955027325689792,-0.020296353575587272
1740039583963911700,1.55691162109375,-1.5508523086726664,0.7725058829754591,0.30326983011364933
1740039583973951700,1.56695166015625,-1.7174340329706668,0.6506500201106071,0.533039247469604
1740039583983990800,1.57699072265625,-1.3119061899095772,0.7740209637135267,0.4851721654012799
1740039583994030800,1.58703076171875,-0.792038266441226,1.0360644649475812,-0.06163549517989158
1740039584004070700,1.597070556640625,-0.36331542575359344,1.012416462856531,-0.47409927498400206
1740039584014110000,1.60710986328125,-0.17649287745952605,0.4980944830775261,-0.5698816621765495
1740039584024150000,1.61714990234375,-0.1652531060427427,0.07103752977550029,-0.4387719410151243
1740039584034188800,1.627188720703125,-0.13484043212234972,0.02572890001833439,-0.3518833466351032
1740039584044228900,1.637228759765625,-0.11525135003328323,0.23223346938192843,-0.6066936817452311
1740039584054268000,1.647267822265625,-0.19948826086074112,0.4157096298575401,-0.6002203940778971
1740039584064308000,1.657307861328125,-0.2212827440395951,0.17759996191859245,-0.48635669901072975
1740039584074347800,1.66734765625,-0.06899842516332864,0.09938625690340995,-0.537632712739706
1740039584084386800,1.67738671875,0.14171528632789848,0.1282277359843254,-0.3750423961654305
1740039584094427000,1.687427001953125,0.10130319644063711,0.285064311337471,-0.06866758577376604
1740039584104465700,1.697465576171875,-0.32697277726233004,0.4711784191012382,0.19287994863688945
1740039584114505700,1.707505615234375,-0.7372285256281494,0.6077186408787966,0.14880758267641067
1740039584124544800,1.717544677734375,-0.9183695211544632,0.6629775867640971,0.08520809394717216
1740039584134584800,1.727584716796875,-1.074028577160835,0.22026655273437498,-0.05370294861495495
1740039584144625000,1.737625,-0.7503796836242079,-0.3064735945910215,-0.21121055509746073
1740039584154664000,1.747663818359375,-0.08483955289572477,-0.3747141871243715,-0.27913258320093154
1740039584164703700,1.757703857421875,0.4991106743827462,-0.22631576977074144,-0.36655075441300866
1740039584174743000,1.767742919921875,1.1527554923951626,0.013107903376221657,-0.035218612897396084
1740039584184783000,1.777783203125,1.385432613891363,0.22055530654788016,0.2764116338044405
1740039584194823000,1.787822998046875,1.4833248328447342,0.3934814314365387,0.377428706780076
1740039584204862000,1.797862060546875,1.7811160854168235,0.6191694246977567,0.39521220075190067
1740039584214902000,1.807902099609375,1.9157927052795887,0.5525403590142727,0.21896248439848423
1740039584224941000,1.817941162109375,2.5614023931354284,0.23206337351202963,-0.15785715057253838
1740039584234981000,1.827981201171875,0.9292845906615257,-0.5519102444171905,-0.7272083591341972
1740039584245020000,1.83802001953125,-0.8515794196903705,-0.9041337827920913,-0.10222001902461052
1740039584255060000,1.84806005859375,-1.8483342030346392,-0.4841682490557432,0.944709538808465
1740039584265100000,1.85810009765625,-1.6729396422058342,-0.3883768017739057,1.3113088085383175
1740039584275138800,1.868138916015625,-0.7063175467967987,-1.1502636755794287,0.3030155630916357
1740039584285179000,1.878178955078125,0.16381225958466528,-1.7445441582143306,-1.0606284128397703
1740039584295218000,1.888218017578125,0.45435938624739647,-1.696480092269182,-1.3907786510944367
1740039584305258000,1.898258056640625,0.49957679405715316,-1.1849199784189461,-1.1671662950634956
1740039584315296800,1.908296875,0.8788882823765277,-0.7260814009308815,-0.9168418731957674
1740039584325336800,1.9183369140625,1.0755459959864615,-0.6940121919751167,-0.8861240788489579
1740039584335377000,1.928376953125,1.0101941106319428,-0.8719622825056313,-1.0019769019067286
1740039584345416200,1.938416259765625,0.9494786529064178,-1.0515455271959304,-0.8839321217626332
1740039584355456000,1.9484560546875,0.6391138960957526,-0.9312059141129255,-0.6670774232983588
1740039584365495000,1.9584951171875,0.25023024077825246,-0.6336702437371016,-0.44604222427904605
1740039584375535000,1.96853515625,-0.14340996141657233,-0.29372692574262615,-0.20385200902819633
1740039584385575200,1.9785751953125,-0.37799072457700966,0.06939326969981194,0.45214112567603587
1740039584395614000,1.988614013671875,-0.39281156935095785,0.2717372122526169,0.7580541637748479
1740039584405654000,1.998654052734375,-0.31844869454503055,0.41875791151225566,0.3355845382630825
1740039584415693000,2.008693115234375,-0.10940393917933106,0.441747157433629,-0.13522037135064602
1740039584425732900,2.01873291015625,0.0967078314743936,0.21435411382019517,-0.42466567425131796
1740039584435772000,2.02877197265625,-0.024996201829612253,-0.11637947728037834,-0.49168987673223014
1740039584445812000,2.03881201171875,-0.3610162089005112,-0.39585634387433527,-0.06974573639929295
1740039584455852000,2.04885205078125,-0.4346127755090594,-0.5764736077874899,0.12154489721953868
1740039584465890800,2.058890869140625,-0.4508464096903801,-0.5107406141608953,-0.38447161102890964
1740039584475931000,2.068930908203125,-0.5399295915052295,-0.346154447594285,-0.5816840359121561
1740039584485970000,2.078969970703125,-0.5526943805322051,-0.1924585083544254,-0.3617705343991518
1740039584496010000,2.089010009765625,-0.569511367559433,-0.14655132818222044,-0.04862696052491665
1740039584506049000,2.099049072265625,-0.42179567177295685,-0.302144040954113,0.16952537653446195
1740039584516089000,2.109089111328125,-0.26967443450391293,-0.6078332071691751,0.06625263358652592
1740039584526129000,2.11912890625,-0.3864835353732109,-0.784009273764491,0.028397826966643332
1740039584536168000,2.12916796875,-0.5594608059272169,-0.7045622275620699,0.08821838167905807
1740039584546208000,2.1392080078125,-0.7930550422683358,-0.44740883645713325,0.05385843143761158
1740039584556247000,2.1492470703125,-0.7790124883905053,-0.2664332606256008,0.12600830636918545
1740039584566287000,2.159287109375,-0.6591282178595662,-0.2699702025800943,0.28848610247969625
1740039584576326000,2.169325927734375,-0.4487085208788514,-0.46445407928228377,0.25763386809825894
1740039584586366000,2.179365966796875,-0.2686450914561748,-0.7373603353142738,0.23041034560799598
1740039584596406000,2.189406005859375,-0.20203882212638855,-0.901247413700819,0.28570670089423655
1740039584606445000,2.199445068359375,-0.4068848106279969,-0.9273357946813106,0.24519231967628
1740039584616484900,2.20948486328125,-0.7301116793602704,-0.787625710695982,0.24588439359366893
1740039584626524000,2.21952392578125,-0.9400105673372745,-0.5735036520659923,0.3316448607265949
1740039584636564000,2.22956396484375,-1.0000950336828827,-0.40480654304921626,0.4639373619318008
1740039584646604000,2.23960400390625,-0.8476458796337246,-0.28315818545520305,0.4698410330176353
1740039584656642800,2.249642822265625,-0.5481181586578489,-0.23650632439553737,0.4447457547277212
1740039584666683000,2.259682861328125,-0.3202890617147088,-0.11325345421433448,0.397568993011117
1740039584676722200,2.26972216796875,-0.06642769789248705,-0.11551555392742156,0.2994534866958856
1740039584686762000,2.279761962890625,0.04622282199263572,-0.2790256156951189,0.1398831024646759
1740039584696801000,2.289801025390625,-0.03316664880365133,-0.410415030580759,0.050722471499443054
1740039584706841000,2.299841064453125,-0.18887392786592244,-0.33840602542459963,0.16551204923987387
1740039584716881200,2.309881103515625,-0.29232874938249587,-0.1717377918869257,0.2101888108342886
1740039584726920000,2.319919921875,-0.36406215246766804,-0.030213351956009864,0.13810381783246994
1740039584736960000,2.3299599609375,-0.3411886418804526,0.1808569178879261,0.1445493407100439
1740039584746999000,2.3399990234375,-0.1667535737335682,0.36233752063214775,0.1449672738611698
1740039584757039000,2.3500390625,-0.04015460799485445,0.44634149948656554,0.18067630062401294
1740039584767078000,2.360077880859375,-0.06556786619275808,0.3622171091228723,0.24288053560256956
1740039584777118000,2.370117919921875,-0.11285744063407183,0.2196644951879978,0.13934183519482612
1740039584787158000,2.380157958984375,-0.08382423837333917,0.15334464158415795,-0.020998948886990547
1740039584797196800,2.39019677734375,-0.017758944052457808,0.05092705416083335,-0.06337210971415043
1740039584807236900,2.40023681640625,0.015137363377213477,-0.05391454553902149,-0.17893384087085723
1740039584817276000,2.41027587890625,-0.08333411676883697,-0.09011398616731166,-0.2058925749450922
1740039584827316000,2.42031591796875,-0.21002572922706603,-0.037840193572640415,0.0058031333208084105
1740039584837355800,2.430355712890625,-0.2734419703438878,0.07214695232212542,0.21390753909647464
1740039584847394800,2.440394775390625,-0.2794260131895542,0.13649579811394214,0.30935236489772794
1740039584857435000,2.450434814453125,-0.28457945042997596,0.11385726532638073,0.3822293850600719
1740039584867474200,2.46047412109375,-0.19924042357951402,0.11673135945796966,0.4326005589038133
1740039584877514000,2.470513916015625,-0.15849457169324158,0.026413959673047063,0.3471007885336876
1740039584887553000,2.480552978515625,-0.005315642064809799,-0.02506955932676792,0.2866547953993082
1740039584897593000,2.490593017578125,0.16830723291635513,-0.08792261360287666,0.3067792995393276
1740039584907633200,2.500633056640625,0.27724457749724385,-0.22469138343930242,0.1876543229430914
1740039584917672000,2.510671875,0.2324140866458416,-0.30629297732710836,0.114080552688241
1740039584927712000,2.5207119140625,0.13067717496305703,-0.2896703438282013,0.15687807640731333
1740039584937751000,2.5307509765625,0.13046557803899048,-0.2843184614062309,0.20244506483972072
1740039584947790800,2.540790771484375,0.10712591124475002,-0.2877168716728687,0.16748247253000736
1740039584957830000,2.550829833984375,0.016708265955746173,-0.21550269933342933,0.2170943524390459
1740039584967870000,2.560869873046875,-0.015110183109343051,-0.04222644583284855,0.29832477492690085
1740039584977910000,2.570909912109375,0.09767010063529014,-0.0014221417576074599,0.30851532955169675
1740039584987948800,2.58094873046875,0.17699439724087715,-0.06205342833101749,0.18775427618622778
1740039584997988900,2.59098876953125,0.20352496903091669,-0.12063888829052448,0.17394319297671318
1740039585008028000,2.60102783203125,0.3184919491648674,-0.19278934774398804,0.15912030237615107
1740039585018068000,2.61106787109375,0.3502604216083884,-0.34223113667070865,0.0689630615890026
1740039585028107800,2.621107666015625,0.23189006277173757,-0.42551790716648097,-0.06345452730059624
1740039585038147000,2.63114697265625,0.11609160024970769,-0.3611813363343477,-0.10636135661303997
1740039585048187100,2.641187255859375,0.05767594389915466,-0.17293781532645225,-0.08678630304932594
1740039585058226000,2.651225830078125,0.09495645776242018,0.015494506251811981,-0.0625976182103157
1740039585068266000,2.661265869140625,0.14347440495491026,0.1543786608070135,-0.028210779961943624
1740039585078305000,2.671304931640625,0.18940847313404083,0.20083295346796512,0.034003391888737675
1740039585088345000,2.681344970703125,0.21254589535444973,0.1417559105992317,-0.043031332474946976
1740039585098385000,2.691385009765625,0.0901540259167552,0.10763853694200515,-0.18065993401110172
1740039585108424000,2.701423828125,0.03660860595107078,0.21303426339328288,-0.22586627243757246
1740039585118463700,2.711463623046875,0.1731049885869026,0.293615282061696,-0.2680114697277546
1740039585128502800,2.721502685546875,0.2624117500245571,0.2778179934710264,-0.33163726194202897
1740039585138542600,2.73154248046875,0.3301446852967143,0.13429390415549278,-0.27462241230010986
1740039585148582700,2.741582763671875,0.24690409203022717,0.029035540348291394,-0.19723639028072357
1740039585158621700,2.75162158203125,0.036728725199401374,0.05176408950686454,-0.11505845780968665
1740039585168661800,2.761661865234375,-0.14582359842956066,0.13714987810850143,-0.061489364707469935
1740039585178700800,2.77170068359375,-0.2854968575358391,0.22118659018874168,-0.045907764694094653
1740039585188740600,2.78174072265625,-0.326404037463665,0.23004618847072122,-0.07280980014503002
1740039585198780000,2.79177978515625,-0.30465660829693075,0.2498059509515762,-0.03331599414646625
1740039585208820000,2.801820068359375,-0.21765286310464144,0.22804537004232406,-0.012479542344808577
1740039585218859800,2.81185986328125,-0.1483843888282776,0.1998883660942316,-0.04649930084645748
1740039585228898800,2.82189892578125,-0.05761836849302053,0.25843933926224705,0.04212766163349151
1740039585238939000,2.83193896484375,0.004001929117739201,0.24108663792312143,0.23534721748828888
1740039585248977700,2.841977783203125,-0.11516016461849211,0.15510405247211456,0.16879472417235372
1740039585259017700,2.852017822265625,-0.2979740617930889,0.01163198560476303,0.1551718570113182
1740039585269056800,2.862056884765625,-0.4393672765597701,-0.16667524780035017,0.05734393546581268
1740039585279096800,2.872096923828125,-0.5092456994280219,-0.21673896313011645,-0.07314882284104823
1740039585289136600,2.88213671875,-0.5296583728596568,-0.046828386670351024,-0.004674421551823616
1740039585299175700,2.89217578125,-0.4434706202253699,0.24100714294612408,0.29931027883291245
1740039585309215700,2.9022158203125,-0.26819763994961976,0.3727063544332981,0.46904199159443377
1740039585319254500,2.912254638671875,-0.13007161028534173,0.28954993231892584,0.3382996424406767
1740039585329294600,2.922294677734375,-0.031157354807853695,0.13702654398977757,0.3828659293979406
1740039585339334700,2.932334716796875,0.07605097402334213,0.061412207818031306,0.5658417391359806
1740039585349373700,2.942373779296875,0.028021102608740328,-0.10066635984182357,0.5699678791552781
1740039585359413800,2.952413818359375,-0.10268179131746291,-0.13090426171720027,0.759475136488676
1740039585369452800,2.962452880859375,-0.3630541444689035,-0.04329728993475437,1.163383269393444
1740039585379492900,2.972492919921875,-0.5392635288119316,0.001059153664112091,1.4699112245202064
1740039585389532000,2.982531982421875,-0.48164223770946263,-0.332165085208416,1.4951783522456883
1740039585399571700,2.99257177734375,-0.43553193618059155,-0.6452338402807712,1.243830432549119
1740039585409611800,3.00261181640625,-0.4462812937319278,-0.431055083027482,1.2827981688469647
1740039585419650800,3.01265087890625,-0.47802740821316836,-0.026628479206562042,1.6737731704205274
1740039585429691000,3.02269091796875,-0.44851650543808935,0.6500713434398174,1.7871826919794083
1740039585439729700,3.032729736328125,-0.5434064738355576,1.0693892269223928,0.896748933237791
1740039585449769700,3.042769775390625,0.1562276496745646,0.142253338727355,-0.9302864611804484
1740039585459809800,3.052809814453125,4.41045000513643,-0.9572960486590861,-2.5770032823711633
1740039585469848800,3.062848876953125,3.627956688892841,-1.6355571292728184,-5.9415755768150085
1740039585479888600,3.072888671875,-0.1911924339413643,-1.120012329700589,-7.207927053251862
1740039585489927700,3.082927734375,-1.5252256999850273,-0.2487999887794256,-4.845256841912866
1740039585499967700,3.0929677734375,-2.2951192085050045,0.9816776257216929,-2.8188503832727667
1740039585510006800,3.1030068359375,-1.4303098664939402,1.6973913618952035,-1.9498247387409209
1740039585520046600,3.113046630859375,-0.27822409005388615,0.8427408641964197,-1.4900573559701442
1740039585530086700,3.123086669921875,0.08161226141229272,-0.5669996769994496,0.11036533155739307
1740039585540126000,3.1331259765625,-0.41122532405033707,-1.2036007134914397,3.5285587415516373
1740039585550165800,3.143165771484375,-0.32090368648171425,-1.5316127706736324,5.386769610956311
1740039585560204800,3.153204833984375,-0.5005810391962527,-0.058339376243948936,3.645146893146634
1740039585570244900,3.163244873046875,-0.3574538402438164,0.26782559176683424,2.842714658463001
1740039585580285000,3.173284912109375,1.2038684245169162,0.26534137373566624,1.9497826531648634
1740039585590323700,3.18332373046875,2.516457920515537,0.3974053268820047,0.8397720775187015
1740039585600363800,3.19336376953125,2.8109739508092404,-0.4332037854939699,-0.41060207758545875
1740039585610402800,3.20340283203125,1.6621898462630806,-0.89717972587049,-3.092367464679479
1740039585620443000,3.21344287109375,0.27249007644653317,0.21422902613580225,-4.098327883264422
1740039585630481700,3.223481689453125,-1.0719149460077284,1.1734054817140103,-3.6608880676358937
1740039585640521700,3.233521728515625,-1.3610744177043437,1.1860481056660412,-2.931795209929347
1740039585650561800,3.243561767578125,-1.0939971600867808,1.1549153007775546,-2.1550755086511373
1740039585660600600,3.2536005859375,-0.8247789449177682,1.4072855492591858,-0.4106131835013628
1740039585670640600,3.263640625,-0.8075565919600427,1.3493091611087322,0.052234629628062246
1740039585680679700,3.2736796875,-0.8783271413624286,0.1867506521016359,0.7029279043585062
1740039585690719700,3.2837197265625,-0.616842296924442,-1.2829706028044223,0.8170604794949292
1740039585700758800,3.2937587890625,0.6569312923371792,-1.307242289751768,-0.14398118543326854
1740039585710798800,3.303798828125,0.9843932413559406,-0.3332844446271658,-0.18047931674718856
1740039585720839000,3.3138388671875,0.865230343902111,0.4945061031967401,-0.40318449480533597
1740039585730877700,3.323877685546875,0.572776433769986,0.7759644989967346,-0.36626492320895193
1740039585740917800,3.333917724609375,0.6083002401590347,0.4180909720361233,0.5074386500060558
1740039585750956800,3.343956787109375,0.38292496610879895,-0.10360767399072647,0.07963233964145183
1740039585760996900,3.353996826171875,0.21332586675100026,-0.45420331890285015,-1.0524895300477743
1740039585771037000,3.364036865234375,-0.15196283183693884,-0.5634399386912584,-0.873057676526904
1740039585781075700,3.37407568359375,-0.028109657675027846,-0.46518706973195073,0.1528551045015454
1740039585791115800,3.38411572265625,-0.18710194975733757,-0.9337953460842371,2.8348993085369467
1740039585801154800,3.39415478515625,-1.6023112777531145,-1.7540210116118191,2.266338081309199
1740039585811194600,3.404194580078125,-2.0796938121914863,-4.537545814481377,2.294009932088852
1740039585821233700,3.414233642578125,1.2018809039615095,0.8485287999480963,2.561285196496546
1740039585831273700,3.424273681640625,2.1679788293659685,2.4082979900479313,0.3196320591107011
1740039585841313800,3.434313720703125,0.7375169871807098,1.4122598305404186,0.621694267000258
1740039585851352600,3.4443525390625,-0.7383365599352866,-0.2230026996999979,-0.12900310427099465
1740039585861392600,3.454392578125,-0.8687866481442004,-1.1171639545321463,-0.67861033244282
1740039585871432000,3.464431884765625,-0.35068858389258384,0.13043956681489943,0.5353302810162306
1740039585881471700,3.4744716796875,-0.6751262897193432,1.0681810201764106,0.47252340396940706
1740039585891511600,3.484511474609375,-0.05743270972780883,1.22486152818501,0.18438772236257792
1740039585901550800,3.49455078125,0.3646960664570331,0.7997095317214727,0.3895423384219408
1740039585911591000,3.5045908203125,0.51508894556351,-0.5281085130691529,-0.48803076970279213
1740039585921629700,3.514629638671875,1.3452502411067484,-1.2063023736655711,-1.1301014697775245
1740039585931669800,3.524669677734375,1.598970150631666,-0.5791226609915494,-1.081567448233068
1740039585941708800,3.534708740234375,1.0942763423543422,0.24104689043462274,-0.7807084786534308
1740039585951748900,3.544748779296875,-0.13218027300238608,0.6893611512988805,-0.02452536944746971
1740039585961788700,3.55478857421875,-1.0395546451509,0.6475555612266063,0.6117477502644062
1740039585971827700,3.56482763671875,-1.7411130147218703,-0.14921908608675002,0.7612380545079708
1740039585981867800,3.57486767578125,-1.4552572607457637,-0.5422831688940525,0.8648837224215269
1740039585991906600,3.584906494140625,-0.21669505092315375,-0.5344546672254801,0.6272621302604675
1740039586001946600,3.594946533203125,0.4185597585916519,-0.9157184221237897,0.4629010046213865
1740039586011985700,3.604985595703125,1.0377976454157383,-1.9316975458979606,-0.008663198927044868
1740039586022025700,3.615025634765625,2.7579192369699475,-1.5898551162838934,-1.5518535946696996
1740039586032065800,3.625065673828125,2.3262241024732586,-0.6923048035353422,-1.2798755593985318
1740039586042104800,3.635104736328125,0.4305133043009787,-0.16644027000069617,-0.03285334507077932
1740039586052144600,3.64514453125,-0.7542787368893623,0.7123410448700189,0.8481964992538094
1740039586062184000,3.655183837890625,-1.216398308809474,1.7747592637360095,1.2772291365429758
1740039586072223700,3.6652236328125,-2.0987889732837677,1.094573937061429,1.9157029811695216
1740039586082263800,3.675263916015625,-2.7181355081140994,-0.45984804679155344,1.0340075324177742
1740039586092302800,3.685302734375,-1.5971382590293883,-0.18161971895396709,0.14660130480378866
1740039586102343000,3.695343017578125,-0.5968401039898396,0.3337742739707231,-0.35369273414462804
1740039586112381700,3.705381591796875,0.258389070379734,0.04019698583185673,-0.9579004442930221
1740039586122421800,3.715421875,1.1795510717969386,-0.06547171234190463,-0.6599798662528396
1740039586132460500,3.72546044921875,1.2373206122636795,0.16487608942389487,0.27637276309877634
1740039586142500600,3.73550048828125,1.3708604831814766,0.20249299563467502,0.5990279694229365
1740039586152540700,3.745540771484375,1.2748983555078506,1.196734919375181,0.6981245957300066
1740039586162579700,3.755579833984375,0.04395962630100548,1.393043673416972,0.8117369463846087
1740039586172619800,3.765619873046875,-1.210060922481492,1.03022918292284,1.1324366347268222
1740039586182658600,3.775658447265625,-1.705191806513071,0.8119570188760757,1.6027143055960535
1740039586192698600,3.78569873046875,-1.8329460797667503,-0.11413958939909934,1.7655585969313978
1740039586202738700,3.79573876953125,-1.6962988904833793,-0.8220306691229343,0.6811857358887792
1740039586212777700,3.80577783203125,-1.4754630134284497,-0.45293023022711276,-0.3737690152287483
1740039586222817500,3.815817626953125,-0.3701217447675764,-0.10134206714630126,-1.4618071207806467
1740039586232856800,3.82585693359375,0.6088732177414,-0.07967559426128863,-1.5166235835954547
1740039586242897000,3.83589697265625,1.149344368777424,0.1544488034337759,-1.4873764463230967
1740039586252935700,3.845935791015625,1.4482804074704647,0.04430325210690498,-1.558294441372156
1740039586262975700,3.855975830078125,0.960634837692976,0.2681546775907278,-1.0291989630922675
1740039586273015800,3.866015869140625,0.12493906970247626,0.33772096576988697,-0.5117071211054921
1740039586283054800,3.876054931640625,-0.9902281580545007,-0.2338905889391899,0.5644461931243538
1740039586293094700,3.8860947265625,-1.6738370294369755,-0.33752515093684193,0.8720923386260867
1740039586303133700,3.8961337890625,-1.6862182259738445,0.8617319803923368,1.126937160527706
1740039586313173800,3.906173828125,-1.465569249793142,1.5782178699821232,1.301490886618197
1740039586323213800,3.9162138671875,-0.8027109054945408,1.0507692821264267,0.9917989145025611
1740039586333252600,3.926252685546875,0.5342683508731424,0.28226562052965165,0.19857582219094036
1740039586343292700,3.936292724609375,1.4198936864197254,-0.16601298449933527,-0.8741814198598266
1740039586353331700,3.946331787109375,1.4247707909367977,-0.1486976925611496,-1.5724173670098185
1740039586363371500,3.95637158203125,1.146248448588699,0.03345394131243229,-1.549169177891314
1740039586373410800,3.966410888671875,0.38147535182237624,0.00990706150829792,-0.942460298576951
1740039586383450600,3.97645068359375,-0.320546981998533,-0.22969956699013708,-0.3340764717876911
1740039586393490700,3.98649072265625,-0.34877938927039503,-0.15297931540310383,-0.3506047050014138
1740039586403529700,3.99652978515625,-0.46255540605410933,0.10591185927987098,-0.3405354386687279
1740039586413569800,4.00656982421875,-0.37320202899575233,0.08063654824793338,-0.42253918361663817
1740039586423608800,4.01660888671875,-0.4583994554184377,0.14268062422871589,-0.28100129968225956
1740039586433649000,4.02664892578125,-0.5681776347376406,0.4600654889345169,-0.06614391251504421
1740039586443688700,4.036688720703125,-0.45922129319533705,0.6432388670712709,-0.09110767337977886
1740039586453727700,4.046727783203125,-0.2079752264380455,0.30435002656579013,-0.19146686696857212
1740039586463767800,4.056767822265625,-0.006944120049476623,-0.27577742755413054,-0.033657354930043216
1740039586473806600,4.066806640625,0.20986440118551253,-0.29861703587174415,0.14950141015946863
1740039586483846700,4.0768466796875,0.20497209909930825,-0.12450374702513217,0.5565720987483859
1740039586493885700,4.0868857421875,0.008519991064071655,-0.41121231843829154,0.909035583359003
1740039586503925800,4.09692578125,-0.297387347946316,-0.8848679413080215,1.0754840366661549
1740039586513965600,4.106965576171875,-0.778735132753849,-1.1636597482472657,0.8874655565857886
1740039586524004600,4.117004638671875,-0.7796494711197912,-1.1777853042334316,0.7938596366494893
1740039586534044700,4.127044677734375,-0.2288354975067079,-0.3292939136862755,0.8613920809134841
1740039586544083700,4.137083740234375,-0.020647505100816487,-0.031096564531326292,0.7187243161663412
1740039586554123500,4.14712353515625,0.2702000658132136,-0.17428806089162827,0.6784285461351275
1740039586564162800,4.157162841796875,0.7259015143193304,-0.08390870178639888,0.8135469184160232
1740039586574203000,4.167202880859375,1.081412257671356,-0.29882512566447256,0.4249421531051397
1740039586584243000,4.177242919921875,1.1634044583119452,-0.3041863604366779,0.037791970516741276
1740039586594281700,4.18728173828125,0.8440227207005023,-0.1371902101188898,-0.20335311959534882
1740039586604321800,4.19732177734375,0.4592366368949413,0.13440847044587134,-0.17746932127624748
1740039586614360800,4.20736083984375,0.3331261853255331,0.10821896717846392,-0.1679837000504136
1740039586624400600,4.217400634765625,0.09787351425290107,0.03984627269804478,-0.01241933659017086
1740039586634440700,4.227440673828125,0.07952873313650488,0.03275543765425682,-0.07945639855265617
1740039586644479700,4.237479736328125,-0.18218392870798705,0.4306500093579292,-0.023348142361640928
1740039586654519800,4.247519775390625,-0.18754048730507492,0.2960264348566532,-0.044184886424243446
1740039586664558600,4.25755859375,-0.010049246457964182,0.4569447265654802,-0.12485825955122709
1740039586674598700,4.2675986328125,1.299704003201425,0.8727765214979648,-0.24933774891793725
1740039586684638700,4.277638671875,-1.1369603957615793,1.2138047121196984,-0.40292262899875636
1740039586694677800,4.287677734375,-2.233092083659023,0.22310616007447243,-0.5584557205379009
1740039586704717600,4.297717529296875,-1.1555832631669938,-0.2658756267428398,-0.16567980702221394
1740039586714756600,4.307756591796875,-0.37546310579553244,-0.826882200807333,0.2502069329679012
1740039586724796700,4.317796630859375,0.443103978870064,-0.8737760539293289,0.14221680610924958
1740039586734835700,4.327835693359375,0.628068770468235,-0.7083160271376371,0.5357946836575865
1740039586744875800,4.337875732421875,0.7754993657030165,-0.5078033916652203,0.6011369244009256
1740039586754915800,4.347915771484375,0.868451059514284,-0.23901333878040312,0.5092030293300748
1740039586764955000,4.357954833984375,0.6566600741803645,-0.0019499650239944457,0.7213759997189044
1740039586774994700,4.36799462890625,0.21779270996674893,0.2725438524603844,0.6422685607343912
1740039586785033700,4.37803369140625,-0.2059459125675261,0.3328951530486345,0.4824617373988032
1740039586795073800,4.38807373046875,-0.2733272579230368,0.24630641839802264,0.26271044071018695
1740039586805112600,4.398112548828125,-0.1389070970393717,0.30655133600234985,-0.3008580927968025
1740039586815152600,4.408152587890625,0.16270049895048141,0.16610475443601608,-0.8891431344091891
1740039586825192700,4.418192626953125,-0.11848156412616372,0.03598725918233395,-1.3316548464745281
1740039586835231700,4.428231689453125,-0.8318646653950214,-0.29858313360214234,-1.0367433871224523
1740039586845271800,4.438271728515625,-0.15148571584448217,-0.5927256544083357,-0.4736258122533559
1740039586855310600,4.448310546875,0.6029062721610069,-0.2451882280230522,-0.028087738104164598
1740039586865350700,4.4583505859375,0.968980641233921,0.08985738105773926,-0.04618775067925453
1740039586875390700,4.468390625,0.6636403615217655,0.26034078896939755,-0.36411563622057436
1740039586885429500,4.478429443359375,-0.06321143925972282,0.1787169832497835,-0.5440186143845319
1740039586895469600,4.488469482421875,-0.9163372846744954,0.16003741722106932,-0.9313622737184166
1740039586905508900,4.4985087890625,-0.813884772068262,-0.0921948840945959,-0.46250469878017897
1740039586915549000,4.508548828125,0.21823935775570572,-0.5048492180347443,0.14181173243969677
1740039586925587700,4.518587646484375,0.9549578149698674,-0.03947685486376285,0.3659060267686844
1740039586935627800,4.528627685546875,0.8458991820968687,0.22771511517465112,0.7120481994032859
1740039586945667800,4.538667724609375,0.6640718848068267,0.016195932519435883,0.46161125707179307
1740039586955706600,4.54870654296875,0.44034598539881403,-0.08806172981262206,0.3250046920597553
1740039586965746700,4.55874658203125,0.04990421391911804,-0.29014088394939896,0.2829533105328679
1740039586975785700,4.56878564453125,0.06539988921470939,-0.14865443794131278,-0.21581746437102556
1740039586985825800,4.57882568359375,1.0128525161862372,-0.010960954475402832,-0.7648267266497015
1740039586995865900,4.588865966796875,1.0398328775703907,0.19119360298514365,-1.7917516073301434
1740039587005904600,4.598904541015625,-0.5184510424077511,0.5694704510271549,-1.4937275689154863
1740039587015944700,4.60894482421875,-0.3810416000476107,-0.3684937051743269,-0.6716434160396456
1740039587025983700,4.618983642578125,-0.3281517579138279,-0.4881991120070219,-0.955569370996952
1740039587036023600,4.6290234375,-0.18182024649474768,0.3273310891807079,-0.30547084728926416
1740039587046062600,4.6390625,-0.759361812307313,0.6077940442025661,-0.19213351418375968
1740039587056102700,4.6491025390625,-0.8496540776509791,0.5297264696598053,0.4820923195645213
1740039587066142700,4.659142822265625,-1.1236685141205787,-0.24576865825951097,1.1346978576570748
1740039587076181800,4.669181640625,-1.5028139616906642,-0.8788368444502354,1.81778416647017
1740039587086221600,4.6792216796875,-1.8760452167809007,-0.30574001961946484,1.3148361058816314
1740039587096260900,4.6892607421875,-1.0239981795787811,0.476689875999093,0.5565633309200406
1740039587106300700,4.69930078125,-0.19357730151759459,0.062415831902623176,-0.7770347585767508
1740039587116340700,4.7093408203125,0.7053717903792858,-0.2538274615526199,-1.3894830583259463
1740039587126380000,4.719380126953125,1.0462485898315905,-0.646772886416316,-0.9499281502395868
1740039587136420000,4.729420166015625,0.5874842466235161,-0.5671580824315547,-0.07179565466642379
1740039587146459100,4.739459228515625,-0.26525137563096357,0.00901858823597431,0.6171893567964434
1740039587156499000,4.7494990234375,-1.0976584590733052,0.3049742959439754,1.0074588404491542
1740039587166538000,4.7595380859375,-0.8920914628207683,0.018975334104895592,0.9913985170081258
1740039587176578000,4.769578125,-0.13528876041173934,-0.48115971488952636,0.5435857759252191
1740039587186618000,4.7796181640625,-0.7034884608507156,-0.5513467653155326,0.20362492227405307
1740039587196657000,4.789656982421875,-0.327938991945982,0.4528331995934248,-0.48521366645544767
1740039587206697000,4.799697021484375,-0.23127777609229086,0.49319677416384217,-0.30431086359918114
1740039587216736000,4.809736083984375,-0.09064181856685317,-0.6040080959230661,-0.3504614971384406
1740039587226775800,4.81977587890625,0.30666356420516966,-1.1343681873112916,-0.3056485419437289
1740039587236816000,4.82981591796875,0.7674959458589553,-0.6758487587749957,-0.12199644037932157
1740039587246855000,4.83985498046875,0.988112042683363,-0.08806172981262206,-0.29933395196944473
1740039587256895000,4.84989501953125,0.9665408468663692,0.5343704960733652,0.1559355348601937
1740039587266934000,4.85993408203125,0.42616906455159187,0.4980617498517036,0.09160743959546089
1740039587276974000,4.86997412109375,0.035614900472294535,-0.21045067664086817,0.24203502468913793
1740039587287013000,4.88001318359375,-0.07775894698500632,-0.035814825224876404,0.17247341268509625
1740039587297053200,4.89005322265625,-0.5205564902544021,0.604563976240158,0.16067016216665506
1740039587307093000,4.900093017578125,-1.032418801921606,0.5673451294362545,-0.04897270522266626
1740039587317132000,4.910132080078125,-0.39031215375065803,0.6881307327210903,0.072466685795784
1740039587327172000,4.920172119140625,0.48541152711510654,0.15948679760098455,-0.44741614298075433
1740039587337211000,4.9302109375,0.9686521399319171,0.11787000809907912,-0.5404252660676837
1740039587347251000,4.9402509765625,1.4164356549203394,0.4616179790735244,-0.26591303614377976
1740039587357291000,4.950291015625,0.8320376838743686,-0.27999884464144703,0.15138152481764555
1740039587367330000,4.960330078125,-0.1065992204895243,-0.39253216788768763,0.3747688399210572
1740039587377370000,4.9703701171875,-0.37047348081469533,-0.31219840197861193,-0.20961656390428543
1740039587387409000,4.980408935546875,-0.18134092027889565,0.5465145228534937,0.47878100305944676
1740039587397449000,4.990448974609375,0.09641805474758147,1.3261919048935173,0.33637247377038
1740039587407488000,5.000488037109375,0.5979121171355247,0.698843849915266,-0.149144559545815
1740039587417527800,5.01052783203125,0.7099193706810474,0.03342179260849953,-0.06792232036441564
1740039587427567900,5.02056787109375,0.7917243781864642,-0.515123943811655,0.09156476949751377
1740039587437607200,5.030607177734375,0.49892801129221914,-0.5109375980377197,0.33071488640010355
1740039587447647000,5.04064697265625,-0.3461959486484527,-0.3120791595131159,0.43549394225776195
1740039587457686000,5.05068603515625,-1.385040984225273,0.03321604090332985,0.37675592208504677
1740039587467726000,5.06072607421875,-1.4637737446784973,0.637175621509552,-0.08976824146956205
1740039587477765000,5.07076513671875,-0.8627391116082668,0.5122662162929773,0.0212362647742033
1740039587487805000,5.080804931640625,-0.12188450443744658,0.14584464121758936,-0.03872077579945326
1740039587497845000,5.090844970703125,0.3902770824372768,0.02147065805196762,-0.4265516341283917
1740039587507884000,5.100884033203125,0.7845791826069355,0.08245791845619678,-0.8506450614497065
1740039587517924000,5.110924072265625,0.7455319513320923,0.15191840817332267,-0.8720540524423122
1740039587527963000,5.120962890625,0.34924130769371986,-0.12324527139663695,-0.5296759085163474
1740039587538003000,5.1310029296875,0.0548269659425132,-0.3776631000578403,-0.45990065376162526
1740039587548043000,5.14104296875,0.15206333306934683,-0.3739817811965942,-0.7740510665908455
1740039587558082000,5.15108203125,0.9147896168410777,-0.09445873737335204,-0.5852022731661797
1740039587568121900,5.161121826171875,1.3958055393457411,0.10256780954897403,-0.08962386456280946
1740039587578161000,5.171160888671875,1.2180723064363002,-0.006452537140250206,0.4176820989742875
1740039587588201000,5.181200927734375,0.5681015007615089,-0.6703022305637598,0.16365823806673288
1740039587598240000,5.191239990234375,-0.18289689928293226,-0.4757850361138582,-0.5684527984172105
1740039587608280000,5.201280029296875,-0.9593091420471668,-0.04436053525209427,-0.5373202857896685
1740039587618320000,5.21131982421875,-1.0578992801368237,0.19256839846968649,0.1372866562306881
1740039587628359200,5.221359130859375,-0.3478922311723232,0.33161212750077246,0.9125126118198037
1740039587638399000,5.23139892578125,0.16238717695130034,-0.02290975094437599,0.959606955949962
1740039587648438000,5.24143798828125,0.3923042043507099,-0.0935848771482706,0.3470361988648772
1740039587658478000,5.25147802734375,0.48188686012029647,-0.4239665860712528,0.0697933749333024
1740039587668518100,5.26151806640625,-0.6436193908214569,-0.734275228780508,0.03564648292064666
1740039587678557000,5.271556884765625,-1.3637445136964321,-0.6833283008754253,-0.35124914038479327
1740039587688597000,5.281596923828125,-1.3059259464561939,-0.4283505002439022,-0.41258623713999987
1740039587698636000,5.291635986328125,-1.1237129377841948,-0.7209300095170735,-0.258144740229845
1740039587708676000,5.301676025390625,-0.285718994120229,-0.9807178407788276,-0.4012044269040227
1740039587718715000,5.31171484375,0.3102852618336677,-0.6638993777841329,-0.35785979069620366
1740039587728755000,5.3217548828125,0.42140287306308744,-0.036507483664155,0.6736693689092993
1740039587738795000,5.331794921875,0.341616804164648,-0.8075596606999635,1.0321700878575444
1740039587748833800,5.341833740234375,0.5912602945635095,-1.415284146797657,0.8069558495879173
1740039587758873900,5.351873779296875,0.4137491434395313,-1.9376292740345,1.2250589504532516
1740039587768913200,5.3619130859375,0.715716658782959,-1.9737001198470592,1.1452177903667091
1740039587778953000,5.371952880859375,1.260313365316391,-0.7310252870738506,1.0558522844791411
1740039587788993000,5.381992919921875,-0.00086154873277992,0.28659166703522204,0.9920878144465386
1740039587799032000,5.392031982421875,-1.8251906433343885,1.515861659312248,1.773235561300069
1740039587809072000,5.402072021484375,-2.9623744725883006,2.6174451828747984,2.14848254012689
1740039587819111200,5.412111083984375,-2.472486676841974,4.128421992754936,2.455325114160776
1740039587829151000,5.42215087890625,-1.293062957751751,3.4696038637578486,1.8201286837697028
1740039587839190000,5.43218994140625,-0.3377332407295704,0.6805816325157881,1.118987078306079
1740039587849230000,5.44222998046875,-0.19922025757431983,-1.2795295224398373,0.3653102528326213
1740039587859270100,5.452270263671875,1.3158990589380264,-1.161609829980135,-0.6192354756712913
1740039587869309000,5.462308837890625,1.425788005155325,0.519467525973916,-1.9466975466310976
1740039587879349000,5.472348876953125,0.6641700114190578,1.0984347041428089,-3.0139456698715685
1740039587889388000,5.482387939453125,0.2988134534929879,0.19121932194828986,-3.0939088489025828
1740039587899427800,5.492427734375,1.032732105654478,0.05413549481332302,-2.439334056563675
1740039587909467000,5.502466796875,1.1460557024955749,0.1946118869960308,-1.0373439833641052
1740039587919507000,5.5125068359375,0.7331576229274273,0.48103404268324373,-0.24765841752886772
1740039587929547000,5.522547119140625,0.10596448451625183,0.47144203847348687,0.34814240654110906
1740039587939586000,5.5325859375,-0.3200046918153763,-0.5622019213289022,0.5560568427026271
1740039587949625900,5.5426259765625,-0.4778747018694877,-0.5649959359616041,-0.1623608917325735
1740039587959665200,5.5526650390625,0.1734217811848037,-0.22391046219468116,-0.741440590365231
1740039587969705200,5.562705322265625,0.8232125723838806,-0.542241083317995,-1.111029105038941
1740039587979745000,5.5727451171875,0.8263736667633056,-0.5023474643468856,-0.6012623043462634
1740039587989784000,5.5827841796875,0.24056232178807258,-0.16249474724531174,0.2306973458558321
1740039587999824100,5.59282421875,-0.06506662953919731,0.28828970312476154,1.1381798545539379
1740039588009863000,5.60286279296875,-0.6619207711875438,0.22574527640640735,1.322178139207512
1740039588019903000,5.612903076171875,-0.9839899943172931,-0.017001988205313682,1.3383042213611305
1740039588029942000,5.62294189453125,-0.49076808571219444,-0.047477205967903134,0.8053469530865549
1740039588039982000,5.632982177734375,-0.5531728116989135,-0.4377618871897459,-0.22763825054615736
1740039588050022000,5.64302197265625,-0.04930908843702636,-0.42103345522880553,-0.4293421416297555
1740039588060061000,5.65306103515625,0.0203343474984169,-0.35600364143550395,-0.05327595537453889
1740039588070101000,5.66310107421875,-0.6022071839809418,-0.01551847164928913,0.5732102220773696
1740039588080140000,5.67314013671875,-1.0112462500333785,-0.0057423430442810055,0.950256067019701
1740039588090179800,5.683179931640625,-1.3152139992833136,0.09943301865458488,1.0300888976693152
1740039588100220000,5.693219970703125,-1.3668003941357134,0.41334991498887536,0.8126882557600736
1740039588110259000,5.703259033203125,-0.7564414678812027,0.43995092166662214,0.39225013607591386
1740039588120299000,5.713299072265625,-0.03125087831020355,0.12964520156681536,-0.085633625882864
1740039588130338000,5.723338134765625,0.558901126217842,-0.5691577318161726,0.017841069377958773
1740039588140377900,5.7333779296875,0.9577274258136749,-0.5275251602232456,-0.14493424837440252
1740039588150417000,5.7434169921875,1.029358245307207,-0.5112906492590904,-0.24117694655507801
1740039588160457000,5.75345703125,0.712668961650133,-0.5803145011246204,-0.08825929821133613
1740039588170497000,5.7634970703125,0.5090320566773414,-0.2648036135971546,-0.013503332434594631
1740039588180535800,5.773535888671875,0.7369476628601551,0.4047428301632404,-0.13429624224305153
1740039588190575900,5.783575927734375,0.8605635211348533,0.793729872789979,-0.049905309897661204
1740039588200615000,5.793614990234375,1.0131564675688742,0.8732330330938101,0.26806466121971606
1740039588210654700,5.80365478515625,1.367992818790674,-0.12114683781266211,0.43737522595971823
1740039588220694800,5.81369482421875,1.2415876220583915,-0.5636901140600442,-0.12965426165610552
1740039588230733800,5.82373388671875,0.27498951031314206,-0.3879366567909717,-0.705723964817822
1740039588240774000,5.83377392578125,-1.0549766706883907,-0.3468862690001726,-0.8807759958192706
1740039588250812700,5.843812744140625,-1.5731331140637397,-0.07325462130308151,-1.0203756051674484
1740039588260852700,5.853852783203125,-1.384307993775606,0.06090367377400398,-0.5032119722217321
1740039588270892000,5.86389208984375,-0.3235211755037308,0.1966764183104038,-0.15018413172662257
1740039588280931800,5.873931884765625,0.14898993523968382,0.4145002540677786,0.433065546067059
1740039588290971600,5.8839716796875,0.18292610711110754,0.22978081553280352,0.7012474039256572
1740039588301011000,5.894010986328125,-0.10047580570578575,-0.30509178484380245,0.6912097017750144
1740039588311051000,5.904051025390625,-0.45644963652491566,-0.40347734027206894,0.4575716262921691
1740039588321089800,5.91408984375,-1.3067781793713569,-0.4565262088924646,0.11530746413469314
1740039588331129900,5.9241298828125,-1.3078174592912197,-0.49420156729221343,-0.39791736805737016
1740039588341169000,5.9341689453125,-0.7143044538974761,-0.05159457815885544,-0.11035977859944104
1740039588351209000,5.944208984375,0.22429038315666838,0.5698129808545113,0.25626257974505423
1740039588361248800,5.954248779296875,0.11060443754289298,0.7554863591134547,0.8239505312696099
1740039588371287800,5.964287841796875,0.02134557036757469,0.24158640413880347,0.9953528075918555
1740039588381328000,5.974327880859375,0.034537023841403426,-0.0748977123349905,0.7220066988378763
1740039588391366700,5.98436669921875,-0.48657589471936225,-0.6157786132156848,0.2737570276424289
1740039588401406700,5.99440673828125,-0.41503742968440055,-1.0057610966205597,0.19858692810684442
1740039588411446800,6.00444677734375,-0.9164438137888908,-0.9021668666332959,0.5709545521050692
1740039588421485800,6.01448583984375,-1.327517016017437,0.22783961833715438,0.3663558163627982
1740039588431526000,6.02452587890625,-0.6438111140012741,1.4017875363647936,-0.17718875076919793
1740039588441564700,6.034564697265625,0.8360895896136761,1.2217787597388028,-0.34968817467838526
1740039588451604700,6.044604736328125,1.4627099148392677,0.460557656365633,-0.21368775886595248
1740039588461644000,6.05464404296875,0.8647896143972873,-0.03538753972351551,0.48214697236120696
1740039588471683800,6.064683837890625,0.34493688849806786,-0.3331570188552141,0.32650194488018747
1740039588481724000,6.074723876953125,0.018124818222783504,0.10662205337584019,-0.1640425612092018
1740039588491763000,6.084762939453125,-0.5157785717954859,0.1269680913120508,-0.9323632674545049
1740039588501803000,6.094802978515625,-0.4268377941260114,-0.09686053781807422,-1.8659376642644405
1740039588511841800,6.104841796875,-0.0832323734274134,-0.22368600578904152,-2.171532430194318
1740039588521881900,6.1148818359375,1.1607868231594562,-0.22209552172720431,-2.183518051542342
1740039588531922000,6.124921875,1.3011609240114688,0.3938315600484609,-0.3606201953202486
1740039588541961000,6.1349609375,1.0061690928995608,-0.21796704362034797,-0.05469663582742214
1740039588552000800,6.145000732421875,0.7088835978925228,-0.41384792763888834,-0.5758394015371799
1740039588562039800,6.155039794921875,-0.11186934291217475,-0.265636557289958,-0.7328016490966082
1740039588572079900,6.165079833984375,0.30306057127714153,-0.029139585244655607,0.672080930674076
1740039588582118700,6.17511865234375,0.3129436673879623,-0.4351192637264728,1.0617615085229277
1740039588592158700,6.18515869140625,-0.13315408647060392,0.34655835222005843,1.0243407094061374
1740039588602198800,6.19519873046875,-0.47690322648882866,1.192757247915864,0.7458385330632329
1740039588612237800,6.20523779296875,0.4287842154860496,0.2282920382797718,0.15258008695244787
1740039588622277600,6.215277587890625,1.5918226169645786,-0.12250643572807311,0.3176362091183662
1740039588632317000,6.22531689453125,1.7307319059610367,0.08381459376215934,0.42379765924513335
1740039588642357000,6.23535693359375,0.5165092241575941,0.08413724984526634,0.22178134121149778
1740039588652396800,6.245396728515625,-0.07643449344821274,0.0027437457501888274,0.10128536852300167
1740039588662435800,6.255435791015625,-0.739321990776062,0.1834673926472664,-0.4301557961001992
1740039588672476000,6.265475830078125,-1.0132990909099577,0.37058278640806674,-0.7785811112359166
1740039588682515000,6.275514892578125,-0.71901570032835,0.2010468884795904,-0.7761468698263168
1740039588692555000,6.285554931640625,-0.05066873201820999,0.06464812099933624,-1.0728718083411455
1740039588702593800,6.29559375,0.47256139789223667,0.15261165113449096,-1.232580724260211
1740039588712633900,6.3056337890625,0.8945102144002914,0.3851818051248789,-0.23053251068294048
1740039588722674000,6.315673828125,0.1671042138021439,0.5214665908366442,2.036427501916885
1740039588732712700,6.325712646484375,-0.20950323972292242,0.9486644139140844,2.2025749264508483
1740039588742752800,6.335752685546875,0.7685024925529956,-0.038825697478652,1.7176254638895392
1740039588752791800,6.345791748046875,1.4166297161877155,-0.38253041383326053,0.575100565868616
1740039588762832000,6.355831787109375,0.9791595054209232,-0.5753717840254307,0.3385278982385993
1740039588772871700,6.36587158203125,0.12933372446484864,-0.9447253208994865,0.6805021375387906
1740039588782910700,6.37591064453125,-0.372758997935988,-0.5429968701213598,0.22289397862851618
1740039588792950800,6.38595068359375,-0.7387819656152278,0.2107061127066612,-0.5883154367506503
1740039588802989800,6.39598974609375,-0.6321954950094223,0.5834808562010526,-1.2175240249037742
1740039588813030000,6.40602978515625,-0.2797872477173805,0.6353250252068042,-1.3948255883976817
1740039588823069000,6.41606884765625,0.13999178700353948,0.3832534674108028,-1.2164736390680073
1740039588833109000,6.42610888671875,0.7578349680662154,0.6494710394591092,-0.8429629825145005
1740039588843149000,6.436149169921875,0.7418143921136856,1.395934718683362,-0.044400282740592954
1740039588853187800,6.446187744140625,0.012850165755487978,1.135880345439911,0.6646019730955361
1740039588863228000,6.456227783203125,-0.931466026353836,0.4301794692367315,0.5604132843464613
1740039588873267000,6.466266845703125,-1.54927877574563,0.9421709602415561,0.2602589559048414
1740039588883306800,6.476306640625,-1.3737106119155884,1.7585510562568902,0.5341872484609484
1740039588893345800,6.486345703125,-1.3820248512744904,1.5965595823585985,0.2958130843669176
1740039588903385900,6.4963857421875,-0.865465321701765,1.216629121890664,-0.4276560882389545
1740039588913426000,6.506426025390625,-0.19007307452261446,1.2272370251446962,-1.4928209754645823
1740039588923464700,6.516464599609375,-0.07516601701551116,1.31190092921257,-1.5584382337570188
1740039588933504800,6.5265048828125,-0.4820072716295719,1.1650339592099188,-1.2971587026327849
1740039588943543800,6.536543701171875,-0.8295119647890329,1.0824708268135785,-1.0359712337061762
1740039588953583600,6.54658349609375,-0.8026146055132151,0.5679062704503536,-0.6367436598330736
1740039588963623700,6.556623779296875,-0.5774392379492521,0.3125958768635988,-0.5929594631642103
1740039588973663000,6.5666630859375,-0.32838439762592314,-0.2511655488669872,-0.3642144204199314
1740039588983702800,6.576702880859375,-0.5009691617310047,-1.235126317089796,-0.4644707381561398
1740039588993741800,6.586741943359375,-2.6889924157381055,-2.080043356281519,-1.2748252902716397
1740039589003782000,6.596781982421875,-3.2638597573727366,-3.345126420217752,-2.022123082232475
1740039589013821000,6.606821044921875,-1.9717554155200718,-3.737971307316422,-2.844984649221599
1740039589023861000,6.616861083984375,-0.7618541405797005,-2.029642956343293,-2.3115832904413343
1740039589033900800,6.62690087890625,1.4101935456603765,-1.966314685770869,-2.3174419533416626
1740039589043939800,6.63693994140625,2.020221048003435,-3.9706753168195483,-2.809978510031104
1740039589053980000,6.64697998046875,2.763828753274679,-0.8668670051932335,-0.8780968397378921
1740039589064018700,6.657018798828125,2.6047359234273433,-1.1139321330040692,0.8325345274806022
1740039589074058800,6.667058837890625,0.7196037293493748,-0.5182499668776989,1.7094018254235386
1740039589084098800,6.677098876953125,-2.109575740236044,0.2999538374334574,0.5833665821716189
1740039589094137900,6.687137939453125,-1.4558230779349803,1.4649351896733045,-4.396888805034757
1740039589104178000,6.697177978515625,1.2441069114029406,0.9676128600120544,-3.8733591441884636
1740039589114216700,6.707216796875,2.7671161043822763,-0.09926350730657577,-3.177892369490862
1740039589124256500,6.717256591796875,2.273972521710396,-0.6393833606868982,-2.97957110658288
1740039589134295800,6.7272958984375,1.9920237120449542,-0.865845845451951,-2.1852315774619577
1740039589144336000,6.7373359375,1.4295464809060097,-0.7884504710823297,-1.9055425294220447
1740039589154375700,6.747375732421875,0.11501403414607048,-0.5769786347001791,-1.034223367125541
1740039589164414700,6.757414794921875,-0.13521920230686663,0.002949497455358505,1.267868603001535
1740039589174454800,6.767454833984375,0.006959317618608474,0.6910533421695232,2.51481132235229
1740039589184493600,6.77749365234375,-0.8382575813025236,1.457043559640646,2.531534493616223
1740039589194533600,6.78753369140625,-2.21586987683177,1.688658604863286,3.8610169644877312
1740039589204572700,6.79757275390625,-2.0110428852915763,0.9859610021293163,4.673492162019014
1740039589214612700,6.80761279296875,-1.2780594498872757,0.3047749739795923,4.914965168911218
1740039589224652500,6.817652587890625,1.0559744495540857,1.3540841204255818,5.13482723249793
1740039589234691600,6.827691650390625,2.1839643340051174,2.5504694957107303,5.302206829175352
1740039589244731600,6.837731689453125,1.4942776040136814,2.2146043869405982,5.170475468984246
1740039589254770400,6.8477705078125,1.4690098917663097,1.3543214363127947,5.390528671228886
1740039589264810500,6.857810546875,3.437456328868866,0.1857674862831831,3.8617397258043287
1740039589274850600,6.8678505859375,4.051995755678415,0.37013679620623585,-0.5360216973464935
1740039589284889600,6.8778896484375,2.1137018802553413,1.3425520880639552,-5.831138349065184
1740039589294929700,6.8879296875,-0.1573497855722904,0.5441869566887617,-5.042631179359555
1740039589304968700,6.89796875,-0.22186638914644716,-0.7384405317664146,-2.877286790150404
1740039589315008800,6.9080087890625,-1.5673299807429313,-0.3063689651727676,-1.2697294284373521
1740039589325047800,6.9180478515625,-3.9479122808694838,0.10129881252646446,-0.5722491950254887
1740039589335087600,6.928087646484375,-3.2232512681305407,0.07928571816086769,-0.38401232295408844
1740039589345127700,6.938127685546875,-0.4838625441074371,0.08687222776710987,0.5811574547547846
1740039589355166700,6.948166748046875,1.3094798395454883,0.0731681120634079,1.097218314090371
1740039589365206800,6.958206787109375,2.0311714810848236,0.16378244896829128,0.2153271235708147
1740039589375245600,6.96824560546875,1.9100275658816097,0.686409900277853,0.4571626070998609
1740039589385285600,6.97828564453125,1.186378945055604,1.1664537628799676,0.2080975376434624
1740039589395325700,6.98832568359375,-0.1597515860170126,0.8287403958946465,0.2241329823715612
1740039589405364500,6.998364501953125,-1.6579484093010424,-0.059362289550900456,-0.4054544490313157
1740039589415404500,7.008404541015625,-1.996483614063263,-0.6579430997282266,-0.9000254706904292
1740039589425443600,7.018443603515625,-1.2110720722854136,-0.7009189026236534,-1.279897478969395
1740039589435483600,7.028483642578125,-0.37959260681569573,-0.5391454553902149,-0.5543167575696483
1740039589445522400,7.0385224609375,0.274665082398057,0.6402665732622146,0.25080480752950535
1740039589455562500,7.0485625,1.6145149257659912,1.972963622266054,0.9496396886870264
1740039589465602600,7.0586025390625,1.3658511305868626,2.111831994730234,0.8148656728643924
1740039589475641600,7.0686416015625,-0.5396066431611776,0.8897405157804489,0.36523769905306397
1740039589485681400,7.078681396484375,-0.735146166396141,0.02769815426468849,-0.21690164287853986
1740039589495720700,7.088720703125,-0.9932996744543313,-0.5583627815574407,-0.4732142723103985
1740039589505760800,7.0987607421875,-1.267222998574376,-0.9488654894441365,-0.4289188747163862
1740039589515800800,7.10880078125,-0.5579530317127704,-1.1418529901087284,-0.8368952069081366
1740039589525839600,7.118839599609375,-0.08523205934464931,-0.9517623799294233,-0.5816965300675481
1740039589535879700,7.128879638671875,-0.05873217495381832,0.02174772142767906,0.1669065540718846
1740039589545918700,7.138918701171875,0.8525555712461471,1.1450345427542925,0.13047799912914634
1740039589555958500,7.14895849609375,1.0284884767353535,1.3629086473941803,0.5410035043470561
1740039589565997600,7.15899755859375,0.236906137368083,0.9833119489252566,1.3077705514095723
1740039589576037600,7.16903759765625,0.15479834752380847,0.6444523345142602,0.571411648222804
1740039589586077700,7.17907763671875,0.9423457322865724,0.00006195932030677795,0.5864011640945449
1740039589596116500,7.189116455078125,0.6804910316228866,-0.6285767199903726,0.9343522493146359
1740039589606156500,7.199156494140625,-0.16504381067361681,-0.9882195947110652,0.11945216272398829
1740039589616195600,7.209195556640625,-1.0261030429035425,-0.8659884687930345,0.5260263730328529
1740039589626235600,7.219235595703125,-1.114727082774043,-1.0102356116861104,0.6669047701451927
1740039589636274700,7.229274658203125,-1.696368448588252,-1.2346838340193032,-0.6216358148112893
1740039589646314500,7.239314453125,-1.8151286835253237,0.06350538070499896,-0.18198694483116268
1740039589656354600,7.2493544921875,-1.2856839534163473,1.0318751965641975,1.34452923335582
1740039589666393600,7.2593935546875,-2.0701871481776237,0.8795353481084108,1.7978703824713824
1740039589676433700,7.26943359375,-2.725196532541513,1.298318394061923,0.39730351047534496
1740039589686472700,7.27947265625,-1.7059715587139128,1.530977979901433,1.4284510868847369
1740039589696512800,7.2895126953125,-1.5249088891208171,1.184724748107791,2.4331512762755154
1740039589706552800,7.299552734375,-0.9351321476459502,0.6868336786478757,1.2408990552723407
1740039589716591600,7.309591552734375,-0.02734502997808158,0.5725818610459565,0.3983030794393271
1740039589726631700,7.319631591796875,0.55858088128753,0.6723632547467947,0.5083878039570525
1740039589736670700,7.329670654296875,0.43818223149366675,0.7032967376708984,0.1044017469778657
1740039589746710500,7.33971044921875,0.9078525841195135,0.8220499583452939,0.45387160273045296
1740039589756749600,7.34974951171875,1.9086194526493547,0.08521218560039996,-0.4891567049928009
1740039589766789600,7.35978955078125,4.409084854263067,-0.4546797042429447,-1.2606557490132748
1740039589776829700,7.36982958984375,5.415319413614273,0.505302807021141,0.4382352768551558
1740039589786868500,7.379868408203125,4.0659973930239675,1.2504518965154885,-0.10649742234917357
1740039589796908500,7.389908447265625,2.211394777244329,-2.4552614012748,-1.020145376608148
1740039589806947600,7.399947509765625,0.21059498048238456,-3.6835014659821983,-2.6598829333707688
1740039589816987400,7.4099873046875,0.39187743030600247,-2.0151988359272477,-2.642919815871119
1740039589827027500,7.42002734375,1.2939584452867507,-0.552659016957879,-1.2725192052863536
1740039589837066800,7.430066650390625,0.9615571401696652,0.530284688064456,0.739350778479129
1740039589847106800,7.44010693359375,0.1426981598854065,0.6853986774086952,0.9328620838221162
1740039589857145600,7.4501455078125,-1.4249942244291305,0.009267594560980797,0.4528645445797592
1740039589867185700,7.460185546875,-2.6241666000843047,-0.6906102745771407,-0.004332174852257595
1740039589877224700,7.470224609375,-2.8309844731807705,-1.281701021260023,-0.38890886282399295
1740039589887264800,7.4802646484375,-2.526369073677063,-1.699727111366391,-0.7650217377651483
1740039589897304600,7.4903046875,-1.502130071079731,-2.1049118400782345,-0.7356700441397727
1740039589907343600,7.500343505859375,-0.29298100274614985,-2.584015791481733,-0.6919489758349955
1740039589917383700,7.5103837890625,0.3030769378900528,-1.0804156478494404,-0.5156356927260756
1740039589927422500,7.52042236328125,0.6577624824643135,0.07025543948709964,-0.22590917999753726
1740039589937462500,7.530462646484375,0.858059429359436,-0.025263620594143867,-0.05010514331869781
1740039589947502600,7.540502685546875,0.6114858844578266,-0.4312070587188005,-0.19903700996190307
1740039589957541600,7.550541748046875,0.6696119102120399,-0.04095803333222866,-0.723903764630854
1740039589967581400,7.56058154296875,0.06084061847515404,0.22756138591766356,-0.2277945736190304
1740039589977620500,7.570620361328125,-0.5283072870442643,0.45213294236958024,-0.38261706920340655
1740039589987660500,7.58066064453125,0.2375672316253185,0.2648725871801376,-0.5060603473901748
1740039589997699800,7.590699951171875,1.0317303082007914,-0.5092220262914896,0.33001017219685014
1740039590007739600,7.60073974609375,1.6915630941331385,-0.7223889761537313,1.4664638605453073
1740039590017779700,7.61077978515625,2.4270798474073407,-0.024151275438070295,1.1678959245122968
1740039590027818800,7.62081884765625,1.5288029739499092,2.35542740060389,0.8854343430191278
1740039590037858800,7.63085888671875,-0.44203773787803946,0.538602434554696,0.19157306728940457
1740039590047897600,7.640897705078125,0.914662191069126,-0.4449538445204496,-0.26328561024963854
1740039590057937700,7.650937744140625,0.4935153385937214,0.7488777546286582,-0.40338754309676583
1740039590067976700,7.660976806640625,-0.005075997223192826,1.9276555770307777,0.3293833090027794
1740039590078016500,7.6710166015625,-0.2702677242219448,2.5976614549964663,1.273120970571786
1740039590088056600,7.681056640625,-0.2467255205929279,2.675011821180582,1.228760435319692
1740039590098095600,7.691095703125,1.3464432502835988,2.672933845862746,1.0151071632452309
1740039590108135700,7.7011357421875,0.8994500088900327,2.2022242133170367,0.7344923786625266
1740039590118174500,7.711174560546875,-3.0904461412280795,1.4791782345592974,-0.2861475582632236
1740039590128214000,7.721214111328125,-3.7029666294306516,1.0361685098439455,-0.6565179622959345
1740039590138254000,7.731254150390625,-0.013757891717553138,0.4102069407880306,0.059720117412088436
1740039590148293400,7.74129345703125,-0.6441203260809183,-2.612730429312587,-0.9544120907206087
1740039590158333200,7.751333251953125,-2.134905996325612,-4.186835603278875,-2.1158479523733256
1740039590168372200,7.761372314453125,-1.2347557302117347,-3.5705373501032587,-0.9167137167714535
1740039590178412300,7.771412353515625,0.7275012046009302,-1.554491541957855,0.12514485794026403
1740039590188451300,7.781451416015625,1.144259466728568,0.7637333784550427,0.8262506979707628
1740039590198491100,7.7914912109375,0.021376550027728078,3.6648750914454458,0.8972000380061567
1740039590208531200,7.80153125,-0.6274316416084766,2.9751351699620483,1.5512734566941857
1740039590218570200,7.8115703125,-0.4293149248292669,1.4605705647230147,0.5706839550027624
1740039590228610300,7.8216103515625,0.33677871648371216,-1.2739835787504912,-0.9824128811936825
1740039590238649000,7.831649169921875,1.5242121390283108,-0.3470072650313377,-1.099897324041277
1740039590248689200,7.841689208984375,2.0020459243655204,-0.4965817404270172,-0.1293133027313277
1740039590258729200,7.851729248046875,1.2981471291482447,-1.0120254177123307,0.0559365163533017
1740039590268768300,7.861768310546875,0.6197855107694864,-1.5421780038297175,-0.625402619998902
1740039590278808000,7.87180810546875,0.24510697948038576,-1.2410527845293282,-0.7470768426865338
1740039590288847000,7.88184716796875,-0.08647183027267455,-0.17944003682732582,0.10735113483536989
1740039590298887200,7.89188720703125,-0.9941028075307607,-0.32776012824773787,0.6385768666096031
1740039590308926200,7.90192626953125,-1.101730311622098,-0.6879378404974937,1.009097693697363
1740039590318966300,7.91196630859375,-0.27619594522714613,-0.9925666840046644,1.2807365601420402
1740039590329006000,7.922006103515625,0.6501164246905594,-1.810253186443448,0.4446411253094673
1740039590339045400,7.93204541015625,0.5138392377633602,-1.6490747824937104,-0.3882489741431549
1740039590349085200,7.942085205078125,-0.5656868408352136,-1.3652274457305669,-1.028701096572727
1740039590359124200,7.952124267578125,-0.8836058854829519,-0.8532160809814929,-0.9724705291762947
1740039590369164300,7.962164306640625,-0.6438900244563818,-0.16478256592154503,-0.14548411907581613
1740039590379204400,7.972204345703125,-0.39232634311728176,0.0007809212446212769,0.5734968569990248
1740039590389243100,7.9822431640625,0.14401340720243752,0.36831133434474467,0.6077455654183402
1740039590399283200,7.992283203125,-0.13329320268034933,0.23145313265919684,-0.2234243409118615
1740039590409322200,8.002322265625,-0.3233681038338691,0.16858604985773562,-0.23225195488668976
1740039590419362300,8.0123623046875,0.47488085381574924,0.33296588019728657,-0.05452477269212249
1740039590429401000,8.022401123046874,1.139036252187565,0.6890881795763969,-0.09103939391653984
1740039590439441200,8.032441162109375,1.0512398953128606,0.9333476023167371,0.05491488168798387
1740039590449481200,8.042481201171874,0.4311136082816869,0.396503994128108,0.5028110632706433
1740039590459520000,8.05252001953125,-0.37464514047615227,-0.04085048130452633,0.6405375722233205
1740039590469560000,8.06256005859375,-0.8410007425308227,0.06625555619597434,0.42096952314712105
1740039590479599400,8.072599365234375,-0.6290998670816421,0.2150461877375841,0.33729905056338755
1740039590489639200,8.08263916015625,0.10525018050074576,0.6322311508446932,0.28277952486854047
1740039590499678200,8.09267822265625,0.052848304546996946,0.5805588312745094,0.483851072865352
1740039590509718300,8.10271826171875,-0.19555939697921276,0.4391144708424806,-0.38390374801307914
1740039590519758300,8.11275830078125,-0.44916474021375175,0.49912090351581573,-0.41344840692728757
1740039590529797400,8.12279736328125,0.5496984135866165,1.2609329585194586,0.14322722526080905
1740039590539837200,8.132837158203126,1.3011416347891092,-0.6655564973413944,-0.02784653605970088
1740039590549876200,8.142876220703124,-0.5370914454698562,4.341187960600853,-1.233310938230902
1740039590559916300,8.152916259765625,-1.183590775641799,3.7758395579397677,2.0906163343526423
1740039590569956400,8.162956298828124,-0.3706804746288806,0.7147066049575805,-0.9990792077038436
1740039590579995100,8.1729951171875,-0.056391749307513235,1.6031658487558365,-0.08342939383685588
1740039590590035200,8.18303515625,0.9839806419670581,0.8904442801356315,0.4333141870658844
1740039590600074200,8.19307421875,0.22449447262771427,-0.18482348343133925,0.31596495143789793
1740039590610114000,8.203114013671875,0.1748176377236843,-0.7479296601235866,0.47362365682888774
1740039590620153000,8.213153076171874,0.5708183585047721,-0.2845493475526571,0.8495334469459951
1740039590630193200,8.223193115234375,0.831669435083866,-1.3211743689924478,0.9392249699175357
1740039590640233200,8.233233154296874,1.038878937846422,-2.6239514960289,-1.6069915445238352
1740039590650272300,8.243272216796875,0.41761984739303587,-1.3720914862811564,-0.8050434400953352
1740039590660312000,8.25331201171875,-0.14610299989283085,-1.4654723652899264,-0.0014472396662458776
1740039590670351400,8.263351318359375,-0.5732802916388958,-1.4041659559339283,-0.002968330019991845
1740039590680391400,8.273391357421875,-0.18522088525108993,-1.633762062549591,0.384746555512771
1740039590690431200,8.28343115234375,-0.31407047946080563,-1.7588251970231532,-0.16496678164834155
1740039590700470300,8.29347021484375,-0.8391571604907512,-0.5958651214778423,0.3178614692416042
1740039590710510300,8.30351025390625,-0.5373953968524933,-0.5556546916425228,0.5009549870751798
1740039590720549000,8.313549072265625,-0.07457498318664729,0.008764321213960646,0.44348647538162767
1740039590730589200,8.323589111328126,0.6059709934938698,1.1554805334448814,0.5002968154273927
1740039590740628200,8.333628173828124,-0.022715032089874146,3.100042821612954,1.4794503294989465
1740039590750668300,8.343668212890625,0.3225614636261016,-0.9386743502974509,0.046301988176070154
1740039590760708000,8.3537080078125,0.4026408894479275,-1.1766928328216075,-0.8946930236212909
1740039590770747100,8.3637470703125,-0.439812243848294,-1.0621773958474396,-0.5432840895649046
1740039590780787200,8.373787109375,-1.1350894142579286,-0.6439630896925926,-0.24400592290330678
1740039590790826200,8.383826171875,-0.4595422687780112,0.2855348514586687,0.10784111030939966
1740039590800866000,8.393865966796875,0.3775691381640732,0.4608528399199247,0.23127152901459483
1740039590810906000,8.403906005859374,0.2876568851139396,0.8658072670072317,-0.03240180191099643
1740039590820945200,8.413945068359375,-0.6091225163273513,1.7706489058077335,0.863969164859876
1740039590830985200,8.423985107421874,0.02493628833591938,-0.7749035917669534,-0.290181800481677
1740039590841024300,8.434024169921875,0.12110299867093563,-1.5648738197624683,-0.20437468119543045
1740039590851064300,8.444064208984376,0.3213011613667011,-1.8326140713334083,-0.20986206309795377
1740039590861103400,8.454103271484374,0.358841056818515,-0.7221142508655786,0.1828787425717339
1740039590871143200,8.46414306640625,0.13090258121676743,0.4347182817101478,0.5301689892629161
1740039590881183200,8.474183349609374,0.3128828771114349,1.3526321680516005,0.8729398953661323
1740039590891222300,8.48422216796875,0.13101415183246135,2.013413706076145,1.3588624407432972
1740039590901262300,8.494262451171876,0.16215996233299373,0.8194289621919393,0.4992324741315096
1740039590911301000,8.504301025390625,0.027195465439558027,-0.16309797383546829,-0.3449787183457985
1740039590921341200,8.514341064453125,0.5173096172876656,-0.5060492414742708,-0.32376700349096205
1740039590931381200,8.52438134765625,0.49273441734910006,-0.8219879990249872,-0.3404981753982603
1740039590941420300,8.534420166015625,0.7595214598484337,0.7367875038623809,0.7218824879363179
1740039590951460000,8.544460205078124,1.492949131888896,-0.01333645143508911,1.370244104848802
1740039590961499100,8.5544990234375,-0.38518122060298915,-2.2051059062331912,-2.114329802895337
1740039590971539200,8.564539306640626,0.18055413554906843,-1.3983955558389425,-0.5842100472584366
1740039590981578000,8.574577880859374,0.5621376239210367,-1.0311199942827225,0.3221218300998211
1740039590991618000,8.5846181640625,0.805706726309657,2.2776678690969945,4.400078248725832
1740039591001658000,8.594658203125,2.795667660605907,2.8178642948448656,6.778038675916195
1740039591011697400,8.604697509765625,2.3611213744617996,0.8323153317719697,4.431223620834946
1740039591021737200,8.6147373046875,-2.137777752369642,-1.1150018080621957,0.10172259089648723
1740039591031776300,8.6247763671875,-4.761688624127209,-1.3189070085823535,-2.982155277857184
1740039591041816300,8.63481640625,-3.3411481642365453,-2.4219214417308566,-3.0188743584454056
1740039591051855400,8.64485546875,-1.6103220041207968,-2.2847399994403124,-1.8349752475067973
1740039591061895200,8.654895263671875,-0.34791955757066606,-1.1449427728176116,-0.5952015430025756
1740039591071935200,8.664935302734374,0.12199278711751102,-0.7795709990561008,-0.563907994594425
1740039591081974300,8.674974365234375,-0.7532258668355644,-0.369739321321249,-0.5383113426536321
1740039591092014300,8.685014404296876,-1.241397506313771,0.3457698321908712,-0.2961946310304105
1740039591102053000,8.69505322265625,0.2876484826117754,0.5000590611487626,-0.8277287346340716
1740039591112093200,8.70509326171875,6.01220043413639,0.9999830977410078,-1.7900097320988773
1740039591122133200,8.71513330078125,3.137973616078496,2.1525538812190295,-1.7136261651203035
1740039591132172800,8.7251728515625,-0.8180582583606243,1.5917185720682143,-2.404725976780057
1740039591142212900,8.735212890625,-3.0419594659566878,0.7605535793751478,-1.5676953069239854
1740039591152251600,8.745251708984375,-2.6806577181130646,-0.390174206584692,-0.4315247463658452
1740039591162291700,8.755291748046876,0.01087912141084671,-1.2974345969647167,0.14110665291026234
1740039591172330800,8.765330810546875,1.5664257253795861,-0.9364169267594814,0.7567645623557269
1740039591182370800,8.775370849609375,1.0302494950585066,-0.030011107382178305,1.111463697063923
1740039591192411000,8.785410888671874,-0.05212985407933592,0.6101034901887178,1.2830603269144891
1740039591202450000,8.795449951171875,-0.5553519093036652,0.7402566412776708,1.2552411766186355
1740039591212489700,8.80548974609375,-0.7143231585979462,0.44958910310566425,1.0426897283062337
1740039591222529000,8.815529052734375,-0.49870808493122454,0.1119061312586069,0.700237788491696
1740039591232568800,8.82556884765625,-0.10261515582203865,-0.08173194226920605,0.32767347287759185
1740039591242609000,8.83560888671875,0.058695496205240484,-0.16460194865763186,0.012997136478126049
1740039591252648000,8.84564794921875,0.07677768086269497,-0.19566051926612854,-0.23380744070038198
1740039591262688000,8.85568798828125,0.1094905945494771,-0.21483400629162788,-0.3946050286389887
1740039591272726800,8.865726806640625,0.16191139439940452,-0.17940262742638588,-0.43461394455283875
1740039591282766800,8.875766845703126,0.038808746343851085,-0.2286269693225622,-0.37692864830344913
1740039591292806000,8.885805908203125,-0.2537961896315217,-0.30755379104316233,-0.07287438981384038
1740039591302846000,8.895845947265625,-0.2770544617526233,-0.3492038982927799,0.28885508192256093
1740039591312885800,8.9058857421875,-0.09024009676501155,-0.404564550986886,0.46851548350229855
1740039591322924800,8.9159248046875,0.07144844866394996,-0.38650282459557056,0.3019225071579218
1740039591332964900,8.92596484375,-0.006569733779132366,-0.28641280333697794,-0.05977452361360192
1740039591343003600,8.936003662109375,-0.2648665958307683,-0.161671740424633,-0.3685517189718783
1740039591353043700,8.946043701171876,-0.6244054256550967,-0.06429974595308303,-0.5326759671151637
1740039591363083800,8.956083740234375,-0.7147814237594604,-0.06830605898499488,-0.39655806240290403
1740039591373122800,8.966122802734375,0.10829130176231265,-0.29746845035851,0.06782324390411376
1740039591383162600,8.97616259765625,0.9007103842146694,-0.3351104910105467,0.5032075883075594
1740039591393202000,8.986201904296875,0.8560141872674226,-0.024631167909502982,0.5969353079926222
1740039591403242000,8.996241943359376,0.5675022196941077,0.4904594581544399,0.3960382763125002
1740039591413280800,9.00628076171875,0.30230770708322524,0.9475953233778476,0.09674151454828679
1740039591423320800,9.01632080078125,-0.38541546775028107,1.140697390332818,-0.23196312800794838
1740039591433361000,9.02636083984375,-1.0579963107705115,0.8510194477200508,-0.40850525143668054
1740039591443400000,9.03639990234375,-1.0403304518289864,0.2652788298934698,-0.49365321269445117
1740039591453440000,9.04643994140625,-0.5977268236964941,-0.3297024944871664,-0.35656317501440643
1740039591463478800,9.056478759765625,-0.2950070286810398,-0.5453922408252955,-0.060914122102782124
1740039591473518800,9.066518798828126,0.18852043825313447,-0.5197241310834885,0.22539975090436637
1740039591483559000,9.076558837890625,0.9337959306061268,-0.45980128504037854,0.5462860478598625
1740039591493597700,9.08659765625,1.2624123834222554,-0.1265250237196684,0.817275948876515
1740039591503637800,9.0966376953125,1.2424854476809502,0.5693073694199323,0.6893226459193974
1740039591513676800,9.1066767578125,0.42232641764879225,1.3013871339827776,-0.06268441971093416
1740039591523716900,9.116716796875,-1.3341406719408928,1.8087445354461669,-1.2832261850006879
1740039591533756000,9.126755859375,-2.3021965995453297,1.2653911069720982,-1.8680223615840077
1740039591543795700,9.136795654296876,-0.6116163789696991,-0.6878636062175035,-1.5585174364730714
1740039591553835800,9.146835693359375,2.0082031318210065,-1.7554688723325729,-1.1959573591314256
1740039591563874800,9.156874755859375,2.6857296145498752,-1.174371696397662,-0.938657033836469
1740039591573915000,9.166914794921874,1.4452157592028378,-0.32725860846638677,-0.8859923422280699
1740039591583954000,9.176953857421875,-0.3319324454963207,-0.001675239735841751,-1.0562659067813307
1740039591593994000,9.186993896484376,-0.96183953730762,-0.11510229695141315,-1.2585311580747365
1740039591604034000,9.197033935546875,-0.00984670962318778,-0.29954759472012515,-1.3216340954586863
1740039591614072800,9.20707275390625,1.3220260173857212,-0.15769523800909518,-1.3955204387940465
1740039591624113000,9.21711279296875,1.5671050859458744,0.22463643838167188,-1.5941683033078908
1740039591634152000,9.22715185546875,0.9824503636598586,0.2929027498781681,-1.6776995500840246
1740039591644191700,9.237191650390624,0.5538904584489762,-0.29671733973026276,-1.5646177991747856
1740039591654230800,9.247230712890625,0.9823778829455375,-1.1415519613355398,-0.8661252469152212
1740039591664270800,9.257270751953126,1.2152549109280109,-1.4570371298998595,-0.2536043203212321
1740039591674311000,9.267310791015625,-0.6678542528897523,-0.8505477385550737,-0.10892291419673711
1740039591684349700,9.277349609375,-2.4281278951555487,0.05889467203915119,0.13050945371333508
1740039591694389800,9.2873896484375,-1.8327099329233167,0.6911550489783287,0.33243286929912863
1740039591704428800,9.2974287109375,-0.9500650744922459,0.9110901778012513,0.7752975595206022
1740039591714468600,9.307468505859376,-0.7162948970623314,0.811008924371004,1.3504464945755899
1740039591724508700,9.3175087890625,-0.5748251099281013,0.5978484042495489,1.9268683721758424
1740039591734548000,9.3275478515625,-0.6369188702695071,0.3829933551698923,2.32547532993257
1740039591744587800,9.337587890625,-1.085278869971633,0.5373480505794287,2.227251979328692
1740039591754626800,9.347626708984375,-1.3728325139068067,0.8076362330675124,1.8279755978778003
1740039591764667000,9.3576669921875,-1.072598252096772,0.8371399754494429,1.2715563516035675
1740039591774706000,9.367705810546875,-0.23085165963470936,0.43897418558895585,0.8985980682358146
1740039591784746000,9.37774609375,0.26832316602542994,-0.043538697475194926,0.6802831610258668
1740039591794785800,9.387785888671875,0.29605449190735816,-0.1795183627605438,0.6975811365030705
1740039591804824800,9.397824951171875,0.39507016193270683,-0.08710486747920512,0.7050709808018059
1740039591814865000,9.407864990234375,0.7169551145367324,0.0928752675741911,0.4671865729860961
1740039591824903700,9.417903564453125,0.9471038865990936,0.06474339806735516,0.3540176552500576
1740039591834943700,9.42794384765625,0.7642331446707248,-0.12347265041172503,0.3273943636752665
1740039591844982800,9.437982666015625,0.6375928240083157,-0.23705635949373244,0.2503358565771952
1740039591855022800,9.44802294921875,0.6595170710466802,-0.2361123566418886,0.07505617256602272
1740039591865063000,9.45806298828125,0.6466735176950693,-0.15394085391163825,-0.06834320352445356
1740039591875101700,9.468101806640625,0.7487725406885146,-0.1910252606809139,-0.15252964453999884
1740039591885141800,9.478141845703124,0.6392794619210064,-0.343649771296978,-0.13667533766562118
1740039591895181000,9.48818115234375,0.3574913957752287,-0.32707214598357676,-0.054121996010933066
1740039591905220900,9.498220947265626,0.20654913915768264,-0.12680033352971076,-0.045305396620463574
1740039591915260700,9.5082607421875,0.3495684938214719,0.07143208205103874,0.03074510247884318
1740039591925300000,9.518300048828126,0.23008871243819592,0.3775514563769102,0.24435290971007195
1740039591935340000,9.528340087890625,-0.7045714337818324,0.6128536656796932,0.5091815116180106
1740039591945378800,9.53837890625,-1.4388948856182395,0.33484044189751144,0.6892460004866123
1740039591955419000,9.5484189453125,-0.9396791434258221,-0.041321021425724025,0.5644745424360037
1740039591965458000,9.5584580078125,-0.29926190964654087,-0.06578150894343852,0.3319861119123175
1740039591975497700,9.568497802734376,-0.7988169667959213,0.11817980470061301,0.4259203504875302
1740039591985537800,9.578537841796875,-1.3189039398424327,0.32814006747603414,0.8255476642679422
1740039591995576800,9.588576904296875,-0.8131009282141923,0.5159902052521705,0.9870715937197208
1740039592005617000,9.598616943359374,-0.5733442237205804,0.7041705978959798,1.1226904628686607
1740039592015655700,9.60865576171875,-0.7404641465485096,0.5084089563429355,1.4366972294434903
1740039592025695700,9.61869580078125,0.0706182814501226,-0.01871054568886757,1.5831766614332794
1740039592035735800,9.62873583984375,0.5728587782911956,-0.3454091821849346,1.4760335067927837
1740039592045774800,9.63877490234375,0.41539457255899903,-0.3805494691491127,1.1484285691067575
1740039592055814700,9.648814697265625,0.3712210843116045,-0.27098493258059025,0.6056971084559336
1740039592065854000,9.65885400390625,0.5702770912349224,-0.0639917029172182,-0.04010170876383781
1740039592075893800,9.668893798828124,0.9700877256929874,-0.12368307829201221,-0.5960664162036031
1740039592085933800,9.678933837890625,1.4824429354436695,-0.6824480109095573,-0.8441565031480044
1740039592095972900,9.688972900390626,2.289990905705839,-1.5829168414533137,-0.7773856178410351
1740039592106013000,9.699012939453125,2.3654244784832,-2.1065438251942394,-0.7965214762698859
1740039592116052000,9.709052001953125,1.6921688049413264,-2.029937555375695,-0.8111956791147589
1740039592126091800,9.719091796875,1.5015817895472048,-1.590398721641302,-0.9064077921386807
1740039592136130800,9.729130859375,1.355673581574112,-0.9290221403330564,-1.2685031015127897
1740039592146171000,9.7391708984375,0.9184171596884727,-0.2788268782526255,-2.03339734044075
1740039592156211000,9.7492109375,0.2433499066799879,0.11806991458535193,-3.286936681577563
1740039592166249700,9.759249755859376,-0.2708339798025787,0.0171013569265604,-4.7263618746802205
1740039592176289800,9.769289794921875,0.06120820967853069,-0.6066413670361042,-6.176129013577103
1740039592186328800,9.779328857421875,1.0370808023832738,-1.7857213872551918,-7.580442269027233
1740039592196369000,9.789368896484374,3.3361423187732693,-2.684244928950071,-8.825613594791292
1740039592206408700,9.79940869140625,5.96511076618135,-2.5931781721025704,-9.625152446120977
1740039592216447700,9.80944775390625,6.525573734888434,-1.557313613641262,-10.029044212412833
1740039592226487800,9.81948779296875,5.170414094185829,-0.6621878976911306,-10.207863486993313
1740039592236526800,9.82952685546875,3.4077076718151567,-0.16198095250427721,-8.837885631865262
1740039592246566700,9.839566650390625,2.589007023897767,0.3655114744931459,-5.692979586175084
1740039592256606000,9.84960595703125,3.021268560105562,0.9646376435935496,-3.573160976605117
1740039592266646000,9.85964599609375,1.5327742156684399,2.2920962074220177,-2.813346525159478
1740039592276686000,9.86968603515625,-0.7913397627830505,4.225997985365987,-2.9256957240104673
1740039592286724900,9.879724853515626,-1.9572183561235665,5.678422653034329,-4.948844057637452
1740039592296765000,9.889764892578125,-2.834444842767715,6.202188168463111,-7.471663914400339
1740039592306804000,9.899803955078125,-4.2051802382647985,6.350176251450181,-8.480977735066414
1740039592316843800,9.90984375,-4.911105570873618,5.941985326659679,-9.049456836968659
1740039592326882800,9.9198828125,-5.012417242881655,4.815757191184163,-9.110948539763688
1740039592336923000,9.9299228515625,-4.830580666306615,3.326531025341153,-8.544047646963596
1740039592346963000,9.939962890625,-4.852421326714754,2.0260159980177876,-7.391516610974073
1740039592357001700,9.950001708984376,-5.331447536706924,1.4235790969341993,-5.97326017036736
1740039592367041800,9.960041748046875,-5.303562919959425,1.0878022509694099,-5.312546436882019
1740039592377080800,9.970080810546875,-4.583080069687962,0.7621101611673832,-4.982869076836109
1740039592387120600,9.98012060546875,-3.875021816703677,0.4389987355083227,-4.580416403436661
1740039592397160700,9.99016064453125,-3.3849762000471353,0.1759030948728323,-3.88113299306035
1740039592407199700,10.00019970703125,-2.7751895207226274,-0.09737608612477779,-3.3748704010963437
1740039592417239800,10.01023974609375,-1.9279414082348345,-0.20590309633910656,-2.943378095695376
1740039592427278800,10.02027880859375,-1.3049509639441965,-0.1787520545631647,-2.461854223668575
1740039592437319000,10.03031884765625,-0.9545388589054346,-0.2688806537777185,-2.0569012578859924
1740039592447358700,10.040358642578125,-0.601130494660139,-0.4879366616785526,-1.6304744191810487
1740039592457398000,10.05039794921875,0.052198389270901674,-0.8692880948603152,-1.240980596075952
1740039592467437800,10.060437744140625,0.8969868336468935,-1.3110574641257524,-0.9421008176147937
1740039592477476900,10.070476806640626,1.449700795662403,-1.6380004307717084,-0.33904286202341316
1740039592487517000,10.080516845703125,1.9191005146533249,-1.7938105856865643,0.2622323018044233
1740039592497555700,10.0905556640625,1.972924459299445,-1.642633935791254,0.9455363450214266
1740039592507595800,10.100595703125,2.388095744496584,-1.4526035313665866,1.8495503008261323
1740039592517635800,10.1106357421875,4.095753648862242,-1.8212562264949081,2.6481281981691716
1740039592527675000,10.1206748046875,4.753231469166279,-2.5645365995079277,3.6552763652339575
1740039592537714700,10.130714599609375,3.5657471932172773,-2.950601617208123,5.586634596174955
1740039592547753700,10.140753662109375,2.9332991847515104,-2.415087796318531,7.865183339759707
1740039592557793800,10.150793701171875,4.389357240486145,-1.5401146415591238,9.314816330882906
1740039592567832800,10.160832763671875,5.484415161672234,-1.0812567748486994,10.15134022026062
1740039592577872600,10.17087255859375,4.197684329551458,-0.6823351981848478,10.930883162266015
1740039592587912700,10.18091259765625,3.02843421395123,-0.26294892564117905,11.325216826617718
1740039592597952000,10.190951904296876,2.5833400841772556,0.1612842024117708,11.49902908669114
1740039592607991800,10.20099169921875,1.9678624997347591,0.5999012451261282,10.947300044059753
1740039592618030800,10.21103076171875,1.8282693201273679,-0.6306885975778103,10.204384412705897
1740039592628071000,10.22107080078125,0.42753337517473844,-4.731198501056433,10.612015950047969
1740039592638111000,10.231111083984375,0.3579085982739925,-12.432643815511465,13.231208268851042
1740039592648149800,10.241149658203126,11.22604684281349,-18.117822957068682,18.625424104160068
1740039592658189800,10.25118994140625,1.7181711150735615,-8.296840480333566,14.708845703709125
1740039592668228900,10.261228759765626,-12.699320237243175,3.6110143219202753,0.7833255292840301
1740039592678269000,10.27126904296875,-9.022548956298827,7.730694789814948,-1.6941723998486995
1740039592688307700,10.2813076171875,-3.1030525248229504,8.381633563739062,2.4690894356191158
1740039592698347800,10.29134765625,6.745155812489986,3.537688973468542,3.0459958818659185
1740039592708387800,10.301387939453125,16.850580669271945,-3.1989971168398856,2.4450914510466157
1740039592718427000,10.311427001953126,10.804468613183499,-3.219997819292545,-1.2769830528274178
1740039592728466700,10.321466796875,-7.009051079070567,-0.3263783185005188,-5.051047125527262
1740039592738505700,10.331505615234375,-14.146234032535553,-0.6545037729293107,-0.15683986328877508
1740039592748545800,10.3415458984375,-7.006131976753473,-2.1362983274668452,0.9934395943816751
1740039592758585900,10.3515859375,-0.04967500827312469,-0.6221504863351583,-2.1818378433704373
1740039592768625000,10.361625,4.560981050604582,0.5005389536201954,-0.18909809201061725
1740039592778664700,10.371664794921875,3.2506559924066063,1.0147358457148075,1.4458042266152797
1740039592788704000,10.3817041015625,-0.6615373248279094,1.0372954680472612,1.5951552685186265
1740039592798743800,10.391743896484375,-0.5073332899354398,0.11868366256952285,2.0277599190756677
1740039592808782800,10.401782958984375,0.9650385525446384,-0.5479559538334607,1.2043291738964617
1740039592818823000,10.411822998046874,1.6946047999165952,-0.2412099720418453,0.3952687532447278
1740039592828863000,10.421863037109375,2.080304053044319,0.02451835518479347,0.14127680357908828
1740039592838901800,10.43190185546875,1.6939714704491198,0.02937339400053024,0.13811253086188807
1740039592848941800,10.44194189453125,1.0724478838406502,-0.09371873266100883,-0.10585298696579411
1740039592858980900,10.45198095703125,0.086956837310642,-0.2410749474853277,-0.055894275513617316
1740039592869021000,10.46202099609375,-0.8525825323183089,-0.2522235334873199,0.07259439469552599
1740039592879060700,10.472060791015625,-0.991663743815571,-0.21208266175687313,0.022015131059056146
1740039592889099800,10.482099853515624,-0.7415363058246671,-0.15617022039890288,0.13014020027583464
1740039592899139800,10.492139892578125,-0.32969613781161605,-0.12527180878818034,0.2439693720188923
1740039592909178600,10.5021787109375,0.0720177729845047,-0.09115911130607128,0.3636099517207593
1740039592919218700,10.51221875,0.3423077090382576,-0.007815057665109634,0.5037482710555196
1740039592929258000,10.522258056640625,0.6230442203044891,0.05012216751873493,0.5822103978738188
1740039592939297800,10.5322978515625,0.6661106240928173,0.0710807843953371,0.5237627024171874
1740039592949337600,10.542337646484375,0.6714379565954208,0.10567921956777572,0.49790886084493247
1740039592959377000,10.552376953125,0.5862858306191862,-0.03626724516749382,0.5041505682460964
1740039592969417000,10.5624169921875,0.028848347213119265,-0.23180910649001596,0.17683423824310301
1740039592979456000,10.5724560546875,-0.11436989102363586,-0.39536359192132947,-0.11704545777528547
1740039592989495800,10.582495849609375,0.45989919245690103,-0.5606260503143072,-0.35433570822328325
1740039592999535900,10.592535888671875,0.8559691790819167,-0.6123737732082605,-0.6362022464327514
1740039593009575000,10.602574951171874,0.9801249894522129,-0.7750760257244109,-0.989769016110152
1740039593019615000,10.612614990234375,1.2275916838012635,-0.9739473237305879,-1.0814384880911558
1740039593029653800,10.62265380859375,0.8525415427207946,-1.1033756676763296,-1.397057292972505
1740039593039693800,10.63269384765625,-0.35644378641843794,-0.9949778367996215,-1.8377413512192666
1740039593049732900,10.64273291015625,-1.6799720250606536,-0.7769967646539211,-1.9736247165232896
1740039593059772700,10.652772705078124,-2.048803145495802,-0.6822387520730495,-1.7925370586194096
1740039593069812700,10.662812744140625,-0.9532374209180474,-0.7900713502824306,-1.5014742375195025
1740039593079851800,10.672851806640624,0.24790625481009482,-0.9555775543034076,-1.1730754460420458
1740039593089891800,10.682891845703125,0.6748898506149649,-1.027940779724717,-0.9280673968914895
1740039593099931000,10.692930908203126,0.6580243482708931,-0.9794014974832534,-0.9788680481936782
1740039593109970700,10.702970703125,0.6558160245716571,-0.9968950685977935,-1.3213514791250227
1740039593120010800,10.7130107421875,0.5866881278097629,-1.2276543737739325,-1.8520748508676885
1740039593130050300,10.72305029296875,0.4646433182440698,-1.6519927157670258,-2.4170275322094557
1740039593140090000,10.733090087890625,-0.08805705363750457,-2.154067208391428,-2.9848288809806105
1740039593150129400,10.74312939453125,-0.882328778219223,-2.602983526802063,-3.5223625172600146
1740039593160169500,10.75316943359375,-1.2224866157472134,-2.897959575822949,-4.023085887536406
1740039593170208500,10.76320849609375,-0.9552677577018738,-3.1860417736768722,-4.347021489059925
1740039593180248300,10.773248291015625,-0.46442383027449247,-3.495153900077939,-4.647620930920541
1740039593190288400,10.783288330078125,0.14680384163856505,-4.375030024448037,-4.875507018747926
1740039593200327400,10.793327392578124,0.4011864528559148,-5.677106894260644,-5.409997926330566
1740039593210367500,10.803367431640625,1.6613959194064138,-6.803012373653054,-6.114517483794689
1740039593220406300,10.81340625,3.6339515453934665,-7.781859159862995,-6.831200941783189
1740039593230446300,10.8234462890625,2.8738030396878718,-6.957365315496921,-7.020389634686708
1740039593240486400,10.833486328125,-0.919318346311897,-4.964132812184095,-6.890397811639309
1740039593250525200,10.843525146484374,-4.342484722413122,-3.966548592278361,-7.452008781337738
1740039593260565200,10.853565185546875,-5.1376621636629105,-4.693394547840953,-8.70726486326456
1740039593270604300,10.863604248046874,-4.4129228249907495,-7.05802232298851,-9.967702147221564
1740039593280644400,10.873644287109375,-2.5415944075986743,-9.091640028181672,-10.250729984295367
1740039593290683400,10.883683349609376,1.8359329866230487,-9.60090355552733,-9.578436872175335
1740039593300723200,10.89372314453125,5.345172110676765,-7.714445081281662,-8.687156725737452
1740039593310763300,10.90376318359375,6.433844130218029,-3.9194057328313585,-7.215509471204877
1740039593320802600,10.913802490234374,4.545729705458879,-0.4806915128558874,-6.500427603194117
1740039593330842400,10.92384228515625,0.40174057960733767,2.10721427180171,-6.663599226787686
1740039593340881400,10.93388134765625,-3.3454432310819624,3.705722650140524,-7.074421669125557
1740039593350921500,10.94392138671875,-5.384371317642927,4.290629155230522,-7.835770198270678
1740039593360961500,10.95396142578125,-5.147493821847439,4.168355359214544,-8.687923033934831
1740039593371000300,10.964000244140625,-4.043157784706354,3.9584851128101346,-8.843297720041871
1740039593381040400,10.974040283203125,-3.4680455283999443,3.916239962276816,-8.700676132524013
1740039593391079400,10.984079345703124,-3.2116134373068808,3.807159409832954,-8.17249280065298
1740039593401119200,10.994119140625,-3.2520506616353986,3.4124884763509034,-7.352587453120947
1740039593411158300,11.004158203125,-3.271899855965376,3.0803461874961853,-6.5046116108804934
1740039593421198300,11.0141982421875,-2.7145336842298504,2.907497804018855,-5.535284932687878
1740039593431238400,11.02423828125,-2.2805532152749595,2.6904385228931904,-4.723551785695553
1740039593441277200,11.034277099609374,-2.425888737926632,2.4157395382255316,-4.131467351800203
1740039593451317200,11.044317138671875,-2.583568047714233,1.826689357459545,-3.693978436332941
1740039593461356300,11.054356201171874,-2.4407100210919976,1.0489975962787865,-3.452299677735567
1740039593471396400,11.064396240234375,-2.025912829904258,0.44864393121004104,-3.3161966783314942
1740039593481436200,11.074436279296876,-2.0684173620261253,0.09167816674411296,-3.2028742505341765
1740039593491475500,11.084475341796875,-2.496504681289196,0.02308452298939228,-3.0162708979487416
1740039593501515300,11.094515380859375,-2.8964401111707088,0.20373393560647962,-2.784866280606389
1740039593511554300,11.10455419921875,-3.1208781043708322,0.4527724093168974,-2.573072664923966
1740039593521594400,11.114594482421875,-3.3439716972246765,0.506045149821043,-2.396359422712028
1740039593531633400,11.12463330078125,-3.943950099240243,0.21752631411552428,-2.1858342195302245
1740039593541673500,11.134673583984375,-4.274096830363572,-0.3034790889501571,-1.9952249923042953
1740039593551713300,11.14471337890625,-4.2308091850399965,-1.0767138707220554,-1.7450100221604108
1740039593561752300,11.15475244140625,-3.8742391418933866,-1.9742004705846308,-1.3757890256248413
1740039593571792400,11.16479248046875,-3.5246047432288528,-2.9086943203270432,-0.9525769842479378
1740039593581831400,11.17483154296875,-3.3067329766765234,-3.8605461321055885,-0.4070982707155868
1740039593591871200,11.184871337890625,-2.824728919917345,-5.051883576351404,0.33015871382206674
1740039593601911300,11.194911376953126,-2.3314929827868935,-6.398514458161592,1.275235332377255
1740039593611950300,11.204950439453125,-1.858397478017956,-7.539462023863196,2.3164715008743104
1740039593621990400,11.214990478515626,-1.9405122821249066,-8.33407627827227,3.640008361214399
1740039593632029200,11.225029296875,-2.152150268854201,-8.789160471662878,5.1387446982026095
1740039593642069200,11.2350693359375,-2.3639351167082787,-8.604511760276555,6.639629737657308
1740039593652108500,11.245108642578124,-2.4273732773959633,-8.146542951360344,8.120997591215371
1740039593662148400,11.2551484375,-2.1860804493762553,-7.85169374358952,9.50573111692667
1740039593672188200,11.265188232421876,-1.2837972628869116,-8.06337133167684,10.722520982336997
1740039593682227500,11.2752275390625,-1.0733296351112425,-7.62511435444653,11.76003798418045
1740039593692267500,11.285267578125,-1.6272013888597487,-5.731304348394274,12.9428039994359
1740039593702306300,11.295306396484374,-0.6353472370386123,-4.105796319448948,13.441774096304178
1740039593712346400,11.305346435546875,-0.04756956042647362,-2.6981986355006695,13.998425982290506
1740039593722386400,11.315386474609374,0.6538461858034134,-1.9486498497426508,14.62558056052327
1740039593732425500,11.325425537109375,1.2926958780050277,-1.3027145831942557,14.90995981220603
1740039593742465300,11.33546533203125,1.8386603657603262,-0.29196809937655926,14.72194834638834
1740039593752504300,11.34550439453125,2.1916519658982754,0.6710708768486976,13.95393802126646
1740039593762544400,11.35554443359375,1.557460913157463,0.6350035381674766,12.363928591203688
1740039593772583200,11.365583251953124,0.2463689622402191,-0.12356675843596458,11.185668070673941
1740039593782623200,11.375623291015625,-0.5028982300974428,-0.6405033046275377,10.188064561545849
1740039593792663300,11.385663330078126,-1.0172599573649466,-0.8269874147474765,8.510943834263086
1740039593802702300,11.395702392578125,2.962228342115879,-0.5402303280174732,6.636198594164848
1740039593812742100,11.4057421875,20.620707110261915,-6.476248855227231,6.200133574020862
1740039593822781400,11.415781494140624,16.266611737293005,-12.549778495073317,1.0282701578095554
1740039593832821200,11.4258212890625,-18.43794806039333,-11.55872630728483,-9.36857773168683
1740039593842861300,11.435861328125,-26.483478030431268,-9.089957774183153,-13.067392502135037
1740039593852900400,11.445900390625,-7.104975797343253,-0.717967652580142,-6.635788259798288
1740039593862940400,11.4559404296875,10.224535220330953,1.2523223665624856,-3.123985714997351
1740039593872979500,11.4659794921875,7.713419829887151,1.454710148257017,-2.1512055353499946
1740039593883019500,11.47601953125,0.8728617155633867,2.5417542743355033,3.744967449814081
1740039593893058300,11.486058349609374,-2.1312287691175937,2.261158048322797,10.088322915333508
1740039593903098400,11.496098388671875,-1.7650116305731236,1.5691098498970268,8.2419082821846
1740039593913138400,11.506138427734374,1.7986777533315121,0.6678495767146349,3.5614813524663447
1740039593923177200,11.51617724609375,1.494950827100128,0.9300883082598447,2.81259658357501
1740039593933217300,11.52621728515625,-0.20157105848416684,0.8222393434375525,1.708568151078373
1740039593943256300,11.53625634765625,-0.6794367002643644,-0.005429039311408996,0.5655540082357824
1740039593953296400,11.54629638671875,-0.9858360605753957,-0.32613106574118134,0.1546087432358414
1740039593963336200,11.556336181640624,-0.6455166027449071,-0.4888830026179552,-0.023309710047394037
1740039593973375200,11.566375244140625,-0.005222410823404789,-0.30458266627788544,-0.44322183309607205
1740039593983415300,11.576415283203126,0.45992286559343337,0.06947627180814743,-0.10249795918315649
1740039593993454300,11.586454345703125,0.8454547993302345,0.30415070460140703,0.5326804240945726
1740039594003494100,11.596494140625,0.9182708830855786,0.40703357144892216,1.0243949238114058
1740039594013533400,11.606533447265624,0.6090495972216129,0.46230654585957526,1.3239204528301953
1740039594023573500,11.616573486328125,0.3772773156106472,0.2989887917935848,1.1575354932133108
1740039594033613600,11.626613525390624,0.06549012478142976,0.130994278088212,0.6569302694238722
1740039594043652400,11.63665234375,-0.09568886369019747,0.03526771273612976,0.05988631342500448
1740039594053692400,11.6466923828125,0.17906711186170576,-0.006373626685142517,-0.21383483918644486
1740039594063731500,11.6567314453125,-0.14830927776545286,-0.10830606094002723,-0.28898893743529913
1740039594073771300,11.666771240234375,-0.3131144939102232,-0.2620534381061792,-0.36126609200835225
1740039594083811300,11.676811279296874,-0.020853402936458588,-0.23792378997802732,-0.3371845938708633
1740039594093850400,11.686850341796875,0.19796236646771428,-0.18109072664380071,-0.3311114845022559
1740039594103890400,11.696890380859376,0.303816942602396,-0.11230828231871127,-0.45273777639493346
1740039594113929200,11.70692919921875,0.4401423525854945,-0.22288696436583993,-0.5477449414312839
1740039594123969300,11.71696923828125,0.4441653244912624,-0.3347627004861832,-0.6728235657349229
1740039594134007800,11.7270078125,0.4454080180287361,-0.43957390504777427,-0.7937401749882846
1740039594144047600,11.737047607421875,0.28535101932436224,-0.5057230782598257,-1.0363328335601836
1740039594154087400,11.74708740234375,-0.061302025441825385,-0.6043044485211372,-1.25280357420817
1740039594164126700,11.757126708984375,-0.4281098233558237,-0.6974404128581285,-1.3610028137728571
1740039594174166800,11.767166748046876,-0.6331085182011127,-0.8141647580534219,-1.2634781129576265
1740039594184205600,11.77720556640625,-0.5842725911006331,-0.7503817294508218,-1.1510333447776735
1740039594194245600,11.78724560546875,-0.41222938652634616,-0.5760474913299083,-1.0086185318782925
1740039594204285700,11.79728564453125,0.08460866674929857,-0.6538689821571111,-0.8034760446481406
1740039594214324500,11.807324462890625,0.8982835954591631,-0.8937269550681114,-0.7034299355965107
1740039594224364500,11.817364501953126,1.3235386139057577,-1.0512509281635283,-0.6114445295341312
1740039594234403600,11.827403564453125,0.5131099736407398,-1.14677349537611,-0.7504273952234536
1740039594244443600,11.837443603515625,-0.8265630518555641,-1.213136019077897,-0.9265960822299122
1740039594254482400,11.847482421875,-1.9112185292318462,-1.3496809170305728,-1.21236561922729
1740039594264522500,11.8575224609375,-2.6319293430402873,-1.5370406409412622,-1.6941886203311383
1740039594274562600,11.8675625,-2.517267775593698,-1.9538480029076337,-2.082322699390352
1740039594284601600,11.8776015625,-1.9285998721435664,-2.5417782397329804,-2.429419980792701
1740039594294641400,11.887641357421876,-1.4738158307433127,-2.8809862291902304,-2.853283983272314
1740039594304680700,11.8976806640625,-1.3072829140231013,-2.894746458995342,-3.3051737645357844
1740039594314720500,11.907720458984375,-1.0839774319842457,-2.708126739796996,-3.6506086656838654
1740039594324760600,11.917760498046874,-0.6505950750529765,-2.625506908777356,-3.909604762046039
1740039594334799600,11.927799560546875,-0.6856923996582627,-2.6488708332300184,-4.105598166528344
1740039594344839700,11.937839599609376,-1.3827756696417928,-2.542273329773545,-4.128667784209549
1740039594354878700,11.947878662109375,-2.240527055965364,-2.5864047324448824,-4.164407206110656
1740039594364918500,11.95791845703125,-2.8153713089853523,-3.3367104740500446,-4.317446435007453
1740039594374957600,11.96795751953125,-2.9855177400276065,-5.286103835636377,-4.9746039373159405
1740039594384997600,11.97799755859375,-1.8019965224906802,-7.8124623879194255,-6.334639659622312
1740039594395037700,11.98803759765625,-1.285914255040884,-10.74422311105728,-8.068145121949911
1740039594405076500,11.998076416015625,-3.690923432676494,-12.233515912395715,-9.494657934248448
1740039594415116500,12.008116455078126,-7.3576751316487785,-11.500713678777217,-10.898407126075028
1740039594425155600,12.018155517578125,-9.071877927613258,-9.912962841296196,-11.752045231860876
1740039594435195600,12.028195556640625,-5.637240163296461,-8.751230261719225,-11.49121519806981
1740039594445235500,12.0382353515625,0.5363792055472731,-8.799431105786562,-10.845857439148425
1740039594455274500,12.0482744140625,7.01387689179182,-9.557693943876027,-10.33202178158164
1740039594465314600,12.058314453125,12.463805846494436,-9.76860405472219,-9.643021280288696
1740039594475353600,12.068353515625,14.724549468797445,-8.860651590424775,-8.877551871821284
1740039594485393400,12.078393310546875,12.381800932502745,-5.879173188915848,-8.008607475832104
1740039594495432700,12.0884326171875,4.991683082410693,-0.8847510369300842,-7.248249126768112
1740039594505472800,12.09847265625,-3.965406728766858,2.7072996413230896,-6.556814091804624
1740039594515512800,12.108512939453124,-10.755499707353115,3.2857752365827557,-7.011458724734187
1740039594525551600,12.118551513671875,-11.877037054663896,3.7284167125076055,-8.56632728331089
1740039594535591700,12.128591796875,-9.907862303286791,5.1717555719226596,-9.254031899574398
1740039594545630700,12.138630615234375,-6.1986991573035715,5.496054746061563,-9.233602859529853
1740039594555670500,12.14867041015625,-3.562043662524223,5.339298250207305,-9.158622729608416
1740039594565710600,12.158710693359374,-1.9322332602098582,5.959442657417059,-8.793264399850369
1740039594575749600,12.16874951171875,-0.8892286207355559,6.137646430447697,-8.641417887869476
1740039594585789700,12.178789794921874,-0.7669478104569017,4.9682431701123715,-8.345526477569342
1740039594595828500,12.188828369140625,-0.9756037126354873,2.67628374081254,-7.619467288470267
1740039594605868500,12.19886865234375,-1.0388675396695732,0.2684855169802904,-6.530639786106348
1740039594615907600,12.208907470703124,-0.3369239701732993,-1.0481149682253599,-5.411881255859136
1740039594625947400,12.218947509765625,-0.12678016752451657,-1.0010668013244868,-4.332206197243929
1740039594635987500,12.228987548828124,-1.2123089206039905,0.05646539906561374,-3.04068696180284
1740039594646026500,12.239026611328125,-2.466980772902071,1.6141268032312392,-1.8484823793336749
1740039594656066600,12.249066650390626,-2.720075536265969,2.7186709301650525,-1.0045864998832343
1740039594666105600,12.259105712890625,-2.3545437496371564,2.9759593458265066,-0.5491685444936156
1740039594676145700,12.269145751953126,-2.0977276276625694,2.501036479499936,-0.8998147505491971
1740039594686185500,12.279185546875,-2.0921264466546474,1.8261691329777239,-1.42895815962404
1740039594696224800,12.289224853515625,-2.2942916716396806,1.2792425221920012,-1.6474711466893552
1740039594706264600,12.2992646484375,-2.406525865808874,0.654441813609004,-1.77487032289505
1740039594716303600,12.3093037109375,-2.3128199926294384,-0.2073351749688387,-1.842601504601538
1740039594726343700,12.31934375,-2.1144446614466608,-1.2360907782077788,-1.5757503108248114
1740039594736382500,12.329382568359375,-1.4581201028309763,-2.1327719069063664,-0.6634173664208501
1740039594746422500,12.339422607421875,-0.7087164246320724,-2.760516852247715,0.8504718968398869
1740039594756462600,12.349462646484374,0.26306984860710797,-3.701880587759614,2.3055391879715024
1740039594766501600,12.359501708984375,1.7149850323833524,-5.303261306664347,3.7082051146060224
1740039594776541400,12.36954150390625,3.202933287245035,-7.11721568571329,5.07119384149909
1740039594786580500,12.37958056640625,4.395378984993696,-8.448187226098776,6.414620374310016
1740039594796620500,12.38962060546875,5.096323606580495,-8.895766742947696,7.732347233197093
1740039594806660600,12.39966064453125,5.195246922147274,-8.403507541894912,9.00867006855011
1740039594816699400,12.409699462890625,5.377982493388653,-7.6512863220572465,10.010448233014344
1740039594826739500,12.419739501953124,5.4330982314109795,-7.301870826840401,10.883453887093067
1740039594836778800,12.42977880859375,5.281994646751881,-6.763727826490998,11.838594219022989
1740039594846818600,12.439818603515626,5.645108996975422,-6.02689648348689,12.853619987595081
1740039594856857600,12.449857666015625,4.65729272236824,-4.609308151400089,13.72724523487687
1740039594866897700,12.459897705078125,5.413505057668686,-3.772202078220248,14.516227036356925
1740039594876937700,12.469937744140625,6.647710752782225,-3.4832577105790374,15.654485216844082
1740039594886976500,12.4799765625,6.06942045096159,-2.7606092067062855,16.972296831405163
1740039594897016600,12.4900166015625,5.929147472396493,-1.1137100146859884,17.682570422351358
1740039594907055600,12.5000556640625,5.076318344905972,1.0444815801590681,17.831719365811345
1740039594917095700,12.510095703125,3.7330677531838417,2.032345201039314,17.42682455995679
1740039594927134500,12.520134521484374,2.5669430761277674,1.2922463806718587,15.555513970482348
1740039594937174500,12.530174560546875,0.4282102149903774,-0.2342740352988243,12.406235116535424
