time,seconds_elapsed,z,y,x
1740113651732162300,0.018162353515625,0.09547112928628922,0.19299860658049584,-0.48217247212864456
1740113651742201300,0.028201416015625,0.05332125582098961,0.23981062663793562,-0.4334511113185435
1740113651752240400,0.038240478515625,-0.025463527080416676,0.2800543742209673,-0.34716925066001714
1740113651762279200,0.048279052734375,-0.016056231787800787,0.25821312929093837,-0.38839097642973064
1740113651772318500,0.058318359375,0.0026414567027823067,0.25253917530775066,-0.4491494330467656
1740113651782357200,0.068357177734375,-0.09568447977602482,0.23457272598445414,-0.5400371070003137
1740113651792396300,0.078396240234375,-0.06483633704781532,0.1146598138809204,-0.6207714530669153
1740113651802435300,0.088435302734375,0.022477202462719285,0.04633095854222774,-0.582740705358237
1740113651812474400,0.098474365234375,0.155763393163681,0.032934301352500917,-0.422909259038046
1740113651822514200,0.10851416015625,0.3935165027499199,-0.004182838642597198,-0.22108718493487683
1740113651832553500,0.118553466796875,0.4947440036058426,-0.060388125467300414,-0.134960441772826
1740113651842592300,0.12859228515625,0.4870528645813465,-0.15802432383298873,-0.2711384791744873
1740113651852631300,0.13863134765625,0.4292003950715065,-0.26811025392711163,-0.4354578845636919
1740113651862670300,0.14867041015625,0.2571966457247734,-0.29294366641044617,-0.42047713652029634
1740113651872709400,0.15870947265625,0.09673252752423286,-0.16874620885550976,-0.23553154281293973
1740113651882748400,0.16874853515625,0.10194412469267844,0.059327802759408944,-0.07629250942794606
1740113651892787200,0.178787109375,0.22384382669925687,0.1428852068901062,-0.03554375319853425
1740113651902826200,0.188826171875,0.2818611313819885,0.06484919652938842,-0.18372575132250785
1740113651912865300,0.198865234375,0.2935632596135139,-0.2836047601789236,-0.3817818604882806
1740113651922903600,0.208903564453125,0.3224070767819881,-0.5192360553056001,-0.5555335494808852
1740113651932942300,0.2189423828125,0.34806408060789107,-0.3886731543719768,-0.4815138986220583
1740113651942981400,0.2289814453125,0.27197803527116776,-0.06610650311410426,-0.36698213156759735
1740113651953020400,0.2390205078125,0.15585691666603088,0.10112228691577911,-0.4543954074088484
1740113651963059500,0.2490595703125,0.1230208149909973,0.1838976007580757,-0.6714554191868752
1740113651973098500,0.259098388671875,0.028330606949329373,0.1254699617087841,-0.9199447345819324
1740113651983137300,0.26913720703125,-0.16615034714341162,-0.05033201087713241,-0.9437971732039004
1740113651993176600,0.279176513671875,-0.20954291414618492,-0.018570260435342788,-0.7345484196987002
1740113652003215600,0.289215576171875,-0.032359131813049315,0.18518822509050367,-0.5432201574832201
1740113652013255400,0.29925537109375,-0.0691419252872467,0.35756022322773934,-0.5583184309590608
1740113652023294500,0.30929443359375,-0.03992284963217098,0.33944647438824177,-0.6153306502524764
1740113652033333500,0.31933349609375,0.08038461931347847,0.20131693759262562,-0.5575461679449305
1740113652043372300,0.329372314453125,0.049131398349138905,0.07828618572950363,-0.47251744915265587
1740113652053411600,0.33941162109375,0.02235679323673248,-0.011105915904045104,-0.437674939558655
1740113652063450400,0.349450439453125,-0.08820084602236747,-0.03243161252737045,-0.5302242996467277
1740113652073489400,0.359489501953125,-0.04772037620716728,0.07121405538618564,-0.599176876374334
1740113652083528400,0.369528564453125,-0.04066635690927505,0.2975695726454258,-0.6865924903031438
1740113652093567500,0.3795673828125,-0.18655366822481154,0.4537023836433887,-0.9555733165197073
1740113652103606500,0.3896064453125,-0.31250293788313865,0.4298994832515716,-1.0409089823693036
1740113652113645600,0.3996455078125,-0.4934557173609733,0.408848511916399,-0.8752807594038545
1740113652123684400,0.409684326171875,-0.5951274548530578,0.3087064682096243,-0.7168438361819833
1740113652133723400,0.419723388671875,-0.4663619587302208,0.11934592587053774,-0.5656630215682089
1740113652143762400,0.429762451171875,-0.25664018088579177,-0.13090952241420745,-0.5476239819327369
1740113652153801500,0.439801513671875,-0.1581903280496597,-0.3262427094221115,-0.6789322578735649
1740113652163840500,0.449840576171875,-0.015706103175878523,-0.3442459836244583,-0.821802851716429
1740113652173879300,0.45987939453125,-0.1811620383143425,-0.21303192530572412,-0.7932534874498843
1740113652183918600,0.469918701171875,-0.36493104425668715,-0.07416004571020603,-0.7160046088788657
1740113652193957600,0.47995751953125,-0.5467442399561405,-0.036442601734399796,-0.6528104860801249
1740113652203996400,0.489996337890625,-0.48528643943071365,-0.06708207014799118,-0.7123394374348223
1740113652214036500,0.500036376953125,-0.06236148050003685,-0.1720107636094093,-0.6528744181618094
1740113652224075500,0.510075439453125,0.05121463893055916,-0.21279987011551857,-0.3194351482991129
1740113652234114300,0.5201142578125,-0.11908349380837753,-0.24904198084175586,-0.17790228759972376
1740113652244153600,0.530153564453125,-0.375393986082077,-0.16676000347435474,-0.26590755625106394
1740113652254192400,0.5401923828125,-0.5112193375885487,-0.13132044130265713,-0.4226629195941612
1740113652264231400,0.5502314453125,-0.437864178520441,-0.18177052560150622,-0.6363932389602065
1740113652274270500,0.5602705078125,-0.175728322827816,-0.2385392915278673,-0.9743188604567199
1740113652284309500,0.5703095703125,-0.030798458367586132,-0.2189940485805273,-1.201876958438754
1740113652294348500,0.5803486328125,0.053286184507608414,-0.1072878238081932,-1.303987964130938
1740113652304387300,0.59038720703125,0.031956980752944945,0.00021685762107372282,-1.3045073118299244
1740113652314426400,0.60042626953125,-0.09716858998709357,0.13452011412680148,-1.0755092441726475
1740113652324465400,0.61046533203125,-0.1793406681060791,0.22606617892384528,-0.9197658708836883
1740113652334504400,0.62050439453125,-0.1573112071275711,0.23725451241433618,-0.9085848439168185
1740113652344543500,0.63054345703125,-0.29682722984552384,0.15783786135017872,-1.1438535162761807
1740113652354582500,0.64058251953125,-0.45366146711111066,0.14881342789530752,-1.3673584664098917
1740113652364621300,0.650621337890625,-0.41018005278110503,0.20948738456666469,-1.200407178147137
1740113652374660600,0.66066064453125,-0.33315877242088315,0.32554362124204633,-0.9023018181245773
1740113652384699400,0.670699462890625,-0.42124271406531333,0.43579321746528143,-0.6967243004780262
1740113652394738400,0.680738525390625,-0.4089151474118232,0.3826531634300947,-0.5699436214968562
1740113652404777500,0.690777587890625,-0.4058195194840431,0.1462047067016363,-0.5113079657200723
1740113652414817300,0.7008173828125,-0.5045265619516373,-0.039052491971850394,-0.4532413054702803
1740113652424856300,0.710856201171875,-0.4241559711635112,-0.19580840330421923,-0.2940698026298545
1740113652434895600,0.7208955078125,-0.2311316456198692,-0.26961013709604736,-0.21336638142447917
1740113652444934400,0.730934326171875,-0.21571897243261337,-0.26574294027388096,-0.41821722876429557
1740113652454973400,0.740973388671875,-0.13436990113430655,-0.19422551802694796,-0.6676881025426089
1740113652465012500,0.751012451171875,-0.05562427206635475,-0.17999474810063837,-0.798841151389107
1740113652475051500,0.761051513671875,-0.06312369704418816,-0.3501309500098228,-0.9282566358532756
1740113652485090600,0.771090576171875,-0.07446342170410788,-0.6525806959122419,-1.0511129809975623
1740113652495129300,0.78112939453125,-0.090574004894495,-0.8110989407420158,-0.8506527332995086
1740113652505168400,0.79116845703125,-0.1584650533378124,-0.7129980474740266,-0.47430685332007705
1740113652515207400,0.80120751953125,-0.2443336570203304,-0.599036152729392,-0.2192361685070209
1740113652525246500,0.81124658203125,-0.19892215141057967,-0.6188590435743332,-0.019018515659496187
1740113652535285500,0.821285400390625,-0.19846856242418287,-0.7741425442665815,0.10757784713017754
1740113652545324500,0.831324462890625,-0.04562077357941307,-1.1560293994992972,0.23496546989539638
1740113652555363300,0.84136328125,0.37176761227846145,-1.4099094680219888,0.26359829292800274
1740113652565402600,0.851402587890625,0.6646762073755264,-1.26287006406188,0.009230888412939384
1740113652575441400,0.86144140625,0.6094903267264365,-0.9689975923687218,-0.5486858755432069
1740113652585480400,0.87148046875,0.2508721188783645,-0.7827613195300102,-1.1887057805679737
1740113652595519500,0.88151953125,0.028946693021059035,-0.8529466163903474,-1.6533030677132308
1740113652605559300,0.891559326171875,-0.29352643473446366,-0.9279413593590259,-1.7672525413677096
1740113652615598300,0.901598388671875,-0.62764908375144,-0.942413536825776,-1.5922271061122417
1740113652625637600,0.9116376953125,-0.594457592767477,-0.8055132495641708,-1.3798543753676116
1740113652635676400,0.921676513671875,-0.33632337393164635,-0.5152618909776211,-1.1386499562837182
1740113652645715500,0.931715576171875,-0.08967968640327453,-0.2775479443579912,-0.8191980029802769
1740113652655754500,0.94175439453125,-0.052500002565979954,-0.2658662743926048,-0.6366282167598605
1740113652665793500,0.95179345703125,-0.20825579694509505,-0.3458604330837726,-0.44637784944158043
1740113652675832600,0.96183251953125,-0.4425263251125812,-0.29845336974263187,-0.06692602106975391
1740113652685871400,0.971871337890625,-0.555260723888874,-0.03909223946034908,0.2388874473784119
1740113652695910400,0.981910400390625,-0.4709738364398479,0.2526391285508871,0.43068405775800345
1740113652705949400,0.991949462890625,-0.2069593273937702,0.37499826476275916,0.5803360553693026
1740113652715988500,1.001988525390625,0.05913724862337112,0.2932248214393854,0.5228942124869674
1740113652726027500,1.012027587890625,0.5181459219813347,0.1857195554882288,0.5248029687177389
1740113652736066300,1.02206640625,1.042318264645338,0.15575813246667383,0.4412124660350382
1740113652746105300,1.032105224609375,1.2704957366347311,0.25932781253457066,0.13351106494842097
1740113652756144600,1.04214453125,1.2275438991367815,0.43545127215981483,-0.11797397993020713
1740113652766183400,1.052183349609375,1.150350769340992,0.5423860447466373,-0.16944741592742502
1740113652776222500,1.062222412109375,0.9491934062242507,0.6296960794091224,-0.36739863994661714
1740113652786261500,1.072261474609375,0.6375462083876132,0.8090460998654365,-0.6587780892476439
1740113652796301300,1.08230126953125,0.370140303337574,1.0433914468348027,-0.802948002186045
1740113652806340400,1.09234033203125,0.19539865345954893,1.2002905660301446,-0.7972954563170671
1740113652816379600,1.102379638671875,0.06163841778934002,1.2552397153139114,-0.7319065999530255
1740113652826418400,1.11241845703125,-0.24576632017195224,1.187633913552761,-0.6741920776091516
1740113652836457500,1.12245751953125,-0.3850280758678913,1.0562784009367228,-0.7323894150339066
1740113652846496300,1.132496337890625,-0.23473230046033858,0.8816238448202609,-0.6562290623519569
1740113652856535600,1.14253564453125,-0.10313245769441128,0.6839929022639989,-0.32221392883006483
1740113652866574600,1.15257470703125,0.012331073784828185,0.4581652082711458,-0.07148196734106167
1740113652876613400,1.16261328125,0.13387772457003594,0.3204483439296484,0.10107459358284249
1740113652886652400,1.17265234375,0.1528454598903656,0.37546646679639817,0.2124152181794867
1740113652896691500,1.18269140625,0.17077274624705313,0.541830748951435,0.164462668051105
1740113652906730500,1.19273046875,0.24368366867899893,0.5681581993848085,0.03470798279440496
1740113652916769500,1.20276953125,0.33745968448519703,0.5054693957597017,-0.04670691571515053
1740113652926808300,1.212808349609375,0.24456629673242566,0.5071364521890879,-0.2572551527126692
1740113652936847000,1.22284716796875,0.22627193062901496,0.5073100551903248,-0.4413800046216696
1740113652946886400,1.232886474609375,0.18912790262699125,0.4428390443235635,-0.6027172889275476
1740113652956925200,1.24292529296875,0.25444588571190835,0.3571171556353569,-0.663938906076923
1740113652966964200,1.252964111328125,0.39933308007419105,0.3512871343076229,-0.628902298682928
1740113652977003300,1.263003173828125,0.5482540599972009,0.48803953753113744,-0.5933301231075078
1740113652987042300,1.273042236328125,0.41761283313035963,0.6175935536831617,-0.5853512166501954
1740113652997082000,1.28308203125,0.1735328586101532,0.6935755541235208,-0.6938963105104863
1740113653007121400,1.293121337890625,0.18247370543479918,0.6143775142461061,-0.8716597193624824
1740113653017160200,1.30316015625,0.2804448348432779,0.4355108933925628,-1.0497521409731358
1740113653027199200,1.31319921875,0.23694588485658166,0.2948065376728773,-1.090770964581892
1740113653037238300,1.32323828125,0.16533377006351946,0.13363807059526442,-0.902454524468258
1740113653047277300,1.33327734375,0.09170095396465622,-0.014157704690098761,-0.6567020136259496
1740113653057316400,1.34331640625,0.127452659958601,-0.13437749078571795,-0.36896139575131237
1740113653067355100,1.353355224609375,0.36203473829329014,-0.3445423362225294,-0.15441873708907514
1740113653077394200,1.363394287109375,0.5510229401886463,-0.5947112752676009,-0.0783318880347535
1740113653087433200,1.37343310546875,0.679516633632779,-0.8145558031976222,-0.1362766480710823
1740113653097472300,1.38347216796875,0.7596236050486564,-0.9654460373669862,-0.3166146109856665
1740113653107511300,1.39351123046875,0.8032862211644649,-1.1292121197223663,-0.383915840309672
1740113653117550000,1.403550048828125,0.5983429097682237,-1.2401520362973213,-0.3304210910852998
1740113653127589000,1.413589111328125,0.23728666111826896,-1.2047446228295564,-0.05735023734243586
1740113653137628400,1.42362841796875,-0.008465046006441115,-1.1339116757154464,0.36735622557699676
1740113653147667200,1.433667236328125,-0.13981646696925162,-1.0835486851781606,0.6478574667826295
1740113653157706200,1.443706298828125,0.05309914206948597,-0.9863695829302072,0.6685152740817517
1740113653167745300,1.453745361328125,0.5614531487882137,-0.8686164792090654,0.1809000629099086
1740113653177784300,1.463784423828125,0.7037012268185615,-0.8815601319342851,-0.7335964527361094
1740113653187824000,1.47382421875,0.2245487600982189,-1.0889829851865769,-1.4922700635835529
1740113653197863400,1.483863525390625,-0.37858547559976574,-1.2517203090161084,-1.89388087933138
1740113653207902200,1.493902099609375,-0.8860252946496009,-1.2189128489136696,-1.668481932144612
1740113653217941200,1.503941162109375,-0.8327461244046688,-0.9826900176346302,-0.91609558487311
1740113653227980000,1.51397998046875,-0.257693489331007,-0.6709755997806787,-0.06843109187046066
1740113653238019300,1.524019287109375,0.12335165438055991,-0.5419172581911087,0.5807905211385339
1740113653248058400,1.534058349609375,0.3803822958886623,-0.6610451573967934,0.9577633739098906
1740113653258097200,1.54409716796875,0.5292389784038066,-0.7806628859460354,1.0204665713865309
1740113653268136200,1.55413623046875,0.5972036766052246,-0.8542237967193126,0.837171247370541
1740113653278175200,1.56417529296875,0.6953484090149402,-0.7423048059791326,0.3549346970297396
1740113653288214300,1.57421435546875,0.7750982375562191,-0.3269745308279991,-0.16062060567019507
1740113653298253300,1.58425341796875,0.605748217588663,0.08622750012278556,-0.4849898676369339
1740113653308292000,1.5942919921875,0.21906477572917937,0.4457026170611381,-0.5085437251711264
1740113653318331100,1.6043310546875,-0.2800935371875763,0.6127484517395496,-0.3211477974358946
1740113653328370400,1.614370361328125,-0.6459165618479251,0.6105652624815702,0.04130397895937785
1740113653338409200,1.6244091796875,-0.9031436027109623,0.8215215505570173,0.49163226479347794
1740113653348448300,1.6344482421875,-0.8629179753065108,1.1227157434403896,0.8208268462911248
1740113653358487000,1.644487060546875,-0.5784978070914745,1.2991063295692205,1.0925114515736698
1740113653368526300,1.6545263671875,-0.34201661713719367,1.26410106716156,1.183085091141984
1740113653378566100,1.664566162109375,-0.33784780701994893,1.122946045064926,0.854850550315529
1740113653388605400,1.67460546875,-0.2721978155016899,0.9672522100061177,0.5499869482044131
1740113653398644200,1.684644287109375,-0.20141221466064452,0.7314788760602474,0.3778695824153721
1740113653408683300,1.694683349609375,-0.31868133425712586,0.4564619114845991,0.28052074962370094
1740113653418722000,1.70472216796875,-0.44920507222414013,0.36155309225618837,0.2835820734230801
1740113653428761300,1.71476123046875,-0.4819593408346176,0.3256500042259693,0.25370642898883666
1740113653438800400,1.72480029296875,-0.416830742841959,0.4133440697699785,0.2602318852348253
1740113653448839200,1.734839111328125,-0.22203884137021376,0.6062473992824554,0.28296973194470626
1740113653458878200,1.744878173828125,0.06444585815919562,0.7224597033023834,0.24599824749799443
1740113653468917200,1.754917236328125,0.007498246800899505,0.7747194673717022,0.07163091082507744
1740113653478956300,1.764956298828125,-0.4062286848068237,0.7502841142952442,-0.2924450692385435
1740113653488995300,1.774995361328125,-0.7228443187057971,0.728739806485176,-0.6238958686977625
1740113653499034000,1.7850341796875,-0.6149731420516967,0.6640723962634801,-0.6439631627578288
1740113653509073200,1.7950732421875,-0.10112462500333785,0.5761632266640663,-0.48380095011331137
1740113653519112400,1.805112548828125,0.309622377478145,0.5798176575183868,-0.3719607236977666
1740113653529151200,1.815151123046875,0.40831425890922546,0.6740455087453127,-0.2903467817850411
1740113653539190300,1.825190185546875,0.27845683936383575,0.814518978318572,-0.3358344944361597
1740113653549229000,1.83522900390625,0.2247918846717104,0.7277572251886129,-0.5282059820942581
1740113653559269000,1.84526904296875,0.12104045482873915,0.5302542929261923,-0.7212772155195474
1740113653569308200,1.85530810546875,-0.06477554677128791,0.32052725438475604,-0.8478796883895993
1740113653579347200,1.86534716796875,-0.12073537093494087,0.20988953562676904,-0.8825161174848675
1740113653589386200,1.87538623046875,-0.2030640369882807,0.2588128487497568,-0.7489335034038871
1740113653599425300,1.88542529296875,-0.2756523033371195,0.46780455875396726,-0.5137499155120924
1740113653609464000,1.895464111328125,-0.10315635002665222,0.5744026467323303,-0.3297943740217015
1740113653619503400,1.90550341796875,0.11072247443199157,0.27980186076462266,-0.2850984510690905
1740113653629542400,1.91554248046875,0.01236735067460686,-0.14375263737440108,-0.3216048204883933
1740113653639581200,1.925581298828125,0.0032978725016117095,-0.40295653126835823,-0.3225556184072047
1740113653649620200,1.9356201171875,-0.13723989447951315,-0.5093710793733597,-0.315364355196245
1740113653659659300,1.9456591796875,-0.4942249481678009,-0.5370096124053001,-0.23422321842703966
1740113653669698300,1.9556982421875,-0.6373895565211772,-0.4882318452328443,0.01547364612687379
1740113653679737300,1.9657373046875,-0.557440990537405,-0.4077022644907236,0.36816286578476426
1740113653689776000,1.975776123046875,-0.4453250159204006,-0.4745762448459863,0.5662788153789937
1740113653699815200,1.985815185546875,-0.18545944324731825,-0.7285539285242557,0.5167628701251
1740113653709854200,1.995854248046875,0.32461072430610655,-0.8771908308088779,-0.027594365096651016
1740113653719893200,2.005893310546875,0.26639702026844025,-1.0153992780596017,-1.0746687016952783
1740113653729932300,2.015932373046875,-0.3874024037837982,-1.1836024660795927,-1.6332694567270576
1740113653739972400,2.025972412109375,-0.7555296137332915,-1.4032383196949958,-1.6845182901881635
1740113653750011100,2.03601123046875,-0.7615700629413128,-1.6888573423057793,-1.3919856887966393
1740113653760050200,2.04605029296875,-0.36656887459158893,-1.9577870959222317,-0.8334908052921295
1740113653770089200,2.056089111328125,0.04503039733767509,-1.9231278704732655,-0.05559000447057187
1740113653780128300,2.066128173828125,0.45021161891818046,-1.5955284857451915,0.8060621156185865
1740113653790167300,2.076167236328125,0.5879810902297496,-1.320636608853936,0.9684852589324117
1740113653800206000,2.0862060546875,0.45364510049819945,-1.2426976291269063,0.7656484182961285
1740113653810245400,2.096245361328125,0.4930021283745765,-1.0639403138667345,0.8609291395768522
1740113653820284200,2.1062841796875,0.5082464592576027,-0.7346130824327468,0.954215326039493
1740113653830323200,2.1163232421875,0.5471580814540385,-0.2758990081071854,0.9666486911550164
1740113653840362200,2.1263623046875,0.6651601915001869,0.1081067389756441,1.0388460584901273
1740113653850401300,2.1364013671875,0.8159305986821651,0.17798633088767526,0.9705642571635543
1740113653860440300,2.1464404296875,0.9280313757300377,0.10763035363554954,0.7734476208049803
1740113653870479400,2.156479248046875,0.9700164140224456,0.14640636675357818,0.4508121786272153
1740113653880518100,2.16651806640625,0.7936872026920319,0.31581016273498536,0.06892484847046434
1740113653890557200,2.17655712890625,0.5362111555039882,0.4788473462939262,-0.24221472863759844
1740113653900596200,2.18659619140625,0.25256781688034535,0.5725777693927288,-0.43330077959503976
1740113653910635300,2.19663525390625,0.1083902320921421,0.6155600020289421,-0.5755974094748497
1740113653920675300,2.20667529296875,0.01961948179390747,0.5011299052506685,-0.5284524676686152
1740113653930714600,2.216714599609375,-0.011912551545235328,0.31487142058014866,-0.24230965864574536
1740113653940753400,2.22675341796875,-0.018320075933402402,0.25614918249845503,0.03246960645020008
1740113653950792400,2.23679248046875,0.00934241336286068,0.3679857556521892,0.12374604225931689
1740113653960831700,2.246831787109375,-0.04379296449720859,0.47750762212276454,0.2592736894608475
1740113653970870500,2.25687060546875,-0.13960602995580992,0.48105508547127246,0.4037102722451091
1740113653980909600,2.26690966796875,-0.2866115407794714,0.5910504146724939,0.429040126475878
1740113653990948600,2.276948486328125,-0.4979302324265241,0.7780576718837022,0.48605636435728516
1740113654000987600,2.286987548828125,-0.5015665431022643,0.9408891037374735,0.6159067696399987
1740113654011026700,2.297026611328125,-0.3141261551707983,0.9952227514714002,0.7365718152850866
1740113654021065500,2.3070654296875,0.022297756525874138,0.9713707512408495,0.6727336954943836
1740113654031104500,2.3171044921875,0.1677133404101245,0.8391483926624059,0.2979998172888532
1740113654041143600,2.3271435546875,0.10534368573678657,0.7380068165242671,-0.13551582889957353
1740113654051182600,2.3371826171875,0.03378127357065677,0.7253945877104997,-0.36113267488703127
1740113654061221600,2.3472216796875,-0.04616787693500519,0.8074725669384002,-0.3267329771570861
1740113654071260700,2.3572607421875,0.06344751303792,0.91573654230237,-0.1438641714574769
1740113654081299500,2.367299560546875,0.34999534093141554,0.8320043661266565,0.007892908674292267
1740113654091338800,2.3773388671875,0.7566314374953508,0.6684539723485707,0.000349142231233418
1740113654101378600,2.387378662109375,0.9274293181836605,0.5106050050824881,-0.3182670909004286
1740113654111417600,2.39741748046875,0.7470265738040208,0.29779286000728605,-0.6991444402970374
1740113654121456600,2.40745654296875,0.4606535179555416,0.11613806973993777,-0.8144776233948766
1740113654131495400,2.417495361328125,0.11666589300632477,0.020420856738090513,-0.6850847160886973
1740113654141534500,2.427534423828125,-0.08772679876983165,-0.00832242266535759,-0.31959282307885584
1740113654151573800,2.43757373046875,0.1451817933946848,-0.06936287456154823,0.09336860404908656
1740113654161612500,2.447612548828125,0.23453180945217608,-0.18325638024508953,0.1675928375693038
1740113654171651600,2.457651611328125,0.12591653643250464,-0.42592122727036474,0.06314261180721223
1740113654181690600,2.467690673828125,0.11410919426083564,-0.7765338233172893,0.08113448783271014
1740113654191729700,2.477729736328125,0.029444701104494743,-1.075953407743573,0.31259565766789016
1740113654201768700,2.487768798828125,-0.16803718380331992,-1.2955910149246455,0.614885902159661
1740113654211807500,2.497807373046875,-0.14320435584187508,-1.3118185116261243,0.9012333851754665
1740113654221846500,2.507846435546875,0.50593876683712,-1.1014765560567379,0.8318071630541235
1740113654231885600,2.517885498046875,1.1832277875483035,-0.7162590950965881,-0.23255342205129562
1740113654241924600,2.527924560546875,0.6747790837168693,-0.6498363656401633,-1.4649272986277937
1740113654251963600,2.537963623046875,-0.12095394558906554,-1.0136053803801537,-2.2298054632037876
1740113654262002400,2.54800244140625,-0.71066054443717,-1.4538029702842235,-2.31147442323938
1740113654272041500,2.55804150390625,-0.8868833727836608,-1.8124796303212642,-1.5155883953288196
1740113654282081500,2.56808154296875,-0.3860124107301235,-1.8340677772730587,-0.3507455382442102
1740113654292120600,2.57812060546875,0.2607388483762741,-1.50565649164021,0.8414344577729701
1740113654302159600,2.58815966796875,0.9760147776544094,-1.1967939560860394,1.6439128696858882
1740113654312198700,2.59819873046875,1.4279483980596064,-0.8620189806401729,1.6387597247064112
1740113654322237400,2.608237548828125,1.3461118263721465,-0.6252858617514372,0.9686628074564039
1740113654332276500,2.6182763671875,0.878093332606554,-0.6215501823544501,-0.020519567872211337
1740113654342315800,2.628315673828125,0.2206324634373188,-0.5301075779318809,-0.6457440548252313
1740113654352354600,2.6383544921875,-0.23037996873604133,-0.243079273045063,-0.801368331779167
1740113654362393600,2.6483935546875,-0.5673977364063263,0.10156593903005122,-0.47003889367729423
1740113654372432400,2.658432373046875,-0.70825465233922,0.28078268849551674,0.04129683683253824
1740113654382471700,2.6684716796875,-0.6999789914250374,0.4061462672203779,0.5755699369460344
1740113654392510700,2.6785107421875,-0.6802069539844989,0.7301625327646732,0.9431566102780401
1740113654402549500,2.688549560546875,-0.7359013686776161,1.0893582482397555,1.095721791922301
1740113654412588500,2.698588623046875,-0.8427601534187793,1.3295207570552825,1.024780708258599
1740113654422627600,2.708627685546875,-0.9107295277953147,1.4542097975194452,0.9354948434785008
1740113654432666600,2.71866650390625,-0.8646844004571438,1.5509990236669777,0.8808942884366959
1740113654442705700,2.72870556640625,-0.7485001534879208,1.4755945308536291,0.7004268082577735
1740113654452744400,2.738744384765625,-0.6149287183880806,1.3691238686472176,0.5421283436585217
1740113654462784500,2.748784423828125,-0.4471639217853546,1.222645605701208,0.2903868215344846
1740113654472823600,2.758823486328125,-0.3200280726909637,1.028636945295334,0.16836564857270567
1740113654482862600,2.768862548828125,0.021657705056667326,0.874915287092328,0.2651881194027141
1740113654492901600,2.778901611328125,0.3118132020533085,0.7680927427083254,0.3654520359234884
1740113654502940700,2.788940673828125,0.5347732316553593,0.6183095929980278,0.34282011553980407
1740113654512979500,2.7989794921875,0.6042424892008305,0.6157289288550615,0.2807141167713329
1740113654523018500,2.8090185546875,0.5579845958948135,0.7786807722181082,0.2564651531124487
1740113654533057800,2.819057861328125,0.3796902219712734,0.9154337599635124,0.2165550213979557
1740113654543096600,2.8290966796875,-0.010733000071579589,0.980905472305417,0.13174334288984538
1740113654553135600,2.839135498046875,-0.3304208718895912,1.0703291381210087,0.2162039064053446
1740113654563174400,2.84917431640625,-0.41619127589464183,1.176305879330635,0.41171818560119716
1740113654573213700,2.859213623046875,-0.441021765768528,1.1702689372539519,0.44203711682353164
1740113654583252700,2.869252685546875,-0.49465749436616896,1.1101163741081952,0.3409235612034797
1740113654593291500,2.87929150390625,-0.5130336935341357,1.0043582440853118,0.1242608416473493
1740113654603330600,2.88933056640625,-0.569925209057331,0.8627502175241708,-0.17168942270055412
1740113654613369300,2.899369384765625,-0.5477905341386795,0.67531859742105,-0.3970442019520327
1740113654623408600,2.90940869140625,-0.44958384240865706,0.4662964922785759,-0.5952024928506463
1740113654633448700,2.91944873046875,-0.3406347708573565,0.2092822173833847,-0.8301813884831964
1740113654643487700,2.92948779296875,-0.16073884348869322,-0.04743979656696319,-0.9903317645594477
1740113654653526500,2.939526611328125,-0.09992986226081847,-0.22583353921175,-0.8112488706067204
1740113654663565600,2.949565673828125,-0.12203991419486701,-0.36324937478005886,-0.4730451628211885
1740113654673604600,2.9596044921875,0.046454292660951614,-0.44073067386746406,-0.14832498679123818
1740113654683643600,2.9696435546875,0.15692889327909795,-0.5149900882989168,-0.022481223333999514
1740113654693682700,2.9796826171875,0.21044771749880165,-0.7362748781651258,0.006092617786675691
1740113654703721500,2.989721435546875,0.25794245912339536,-1.033584338569641,-0.03828340729549527
1740113654713760500,2.999760498046875,0.2539665777623653,-1.2119003398030996,-0.0911505626734346
1740113654723799600,3.009799560546875,0.13442483705878258,-1.3202759588479995,-0.02695150061585009
1740113654733838600,3.019838623046875,0.14719079512953756,-1.4108365197390318,0.013276172615215182
1740113654743877600,3.029877685546875,0.7167500934839248,-1.4147943174540996,-0.3502686779800802
1740113654753916400,3.03991650390625,0.6184966400027275,-1.4217553886383771,-1.4184614616595208
1740113654763955700,3.049955810546875,-0.2575952896535396,-1.512193199932575,-1.7834797458082436
1740113654773994800,3.059994873046875,-0.7394494165480137,-1.5480828439593315,-1.4808411993354558
1740113654784033500,3.070033447265625,-0.8871089982330799,-1.526985110872984,-0.778123430596292
1740113654794072600,3.080072509765625,-0.4848106386125087,-1.5134195268571375,0.09507475037984549
1740113654804112600,3.090112548828125,0.0895417392373085,-1.4279489825814962,0.7885697135478258
1740113654814151400,3.1001513671875,0.4023509665906429,-1.2475871547341346,1.0259075933966786
1740113654824190700,3.110190673828125,0.34179099168777466,-1.0373527511924505,0.7408436473853885
1740113654834229500,3.1202294921875,0.16317282916996628,-0.9202250858932733,0.42212643809728323
1740113654844268500,3.1302685546875,0.1700514462351799,-0.7567483418732881,0.15923848539572208
1740113654854307600,3.1403076171875,0.42074820854663847,-0.48217853654325005,0.0833835819337517
1740113654864346600,3.1503466796875,0.622270313322544,-0.19929332281053064,0.3776395365191623
1740113654874385700,3.1603857421875,0.7374608730792999,-0.003599485796689987,0.5640474395977333
1740113654884424700,3.1704248046875,0.81998718059659,0.21407237426936626,0.6102301122430711
1740113654894463500,3.18046337890625,1.0570154830396175,0.33201837021410463,0.5802841425189748
1740113654904502500,3.19050244140625,1.3321335699021815,0.4293161304056644,0.38974907650779933
1740113654914541600,3.20054150390625,1.337949562704563,0.40154841803610325,0.06956161200404166
1740113654924580400,3.210580322265625,1.2393886507093905,0.3361819196343422,-0.3500111230224371
1740113654934619400,3.220619384765625,0.8809586589097976,0.423317182251811,-0.5769213880876078
1740113654944658200,3.230658203125,0.25692193870292973,0.5106780703186988,-0.5852019078399986
1740113654954697500,3.240697509765625,-0.10389994406872428,0.610384645217657,-0.4310380222948268
1740113654964736300,3.250736328125,-0.27419454227685924,0.729773241186142,-0.14730346172377468
1740113654974776300,3.2607763671875,-0.37090953414440153,0.8245546346426009,0.224613605495356
1740113654984815400,3.2708154296875,-0.38779754058122634,0.9076450057834387,0.5102887787401675
1740113654994854100,3.280854248046875,-0.38928105713725086,0.9492314001470804,0.5996227204456925
1740113655004893200,3.29089306640625,-0.45119010856151576,1.063517704540491,0.5917081113962456
1740113655014932500,3.300932373046875,-0.6255880595684051,1.1517740801423788,0.5609921071477234
1740113655024971300,3.31097119140625,-0.61369888433218,1.21042617559731,0.5415750206246972
1740113655035010300,3.32101025390625,-0.45619127784967417,1.234096974042058,0.6526124062247574
1740113655045049300,3.33104931640625,-0.22512975659025833,1.194223228815198,0.6733326112356036
1740113655055088400,3.34108837890625,0.007651382402842864,1.1927350360840558,0.5892308710951357
1740113655065127400,3.35112744140625,0.25152678339481355,1.1497878747612238,0.4925408675383776
1740113655075166200,3.361166259765625,0.5457412003934383,1.0472650733977555,0.24383842084929347
1740113655085205200,3.371205322265625,0.6369874054610729,0.9628244566917419,-0.19923724524173883
1740113655095244300,3.381244384765625,0.5774257939457893,0.8833627974420786,-0.6187132053628563
1740113655105283300,3.391283447265625,0.36452655510902404,0.8558861769735813,-0.8540363113231957
1740113655115322400,3.401322265625,0.15949614995121955,0.8090233035117387,-0.9996139721676707
1740113655125361400,3.411361328125,-0.0026654243835480883,0.6394529187917709,-0.899577288531512
1740113655135400200,3.421400146484375,-0.020542441857722585,0.43802901369333264,-0.6483551871716976
1740113655145439500,3.431439453125,-0.03674655768361408,0.32796471090912815,-0.45662101103644814
1740113655155479600,3.4414794921875,-0.07599486448850948,0.1914654056638479,-0.3899066051570698
1740113655165518300,3.451518310546875,-0.36652094379663464,-0.0088578447163105,-0.35933055736850944
1740113655175557400,3.461557373046875,-0.5727940424919128,-0.28529753557145593,-0.20307762712221591
1740113655185596200,3.47159619140625,-0.6451777261793613,-0.6814426332592963,0.2639159440424293
1740113655195635200,3.48163525390625,-0.679915862083435,-1.1369073504000902,0.7607277668982744
1740113655205674500,3.491674560546875,-0.5799895069539547,-1.4729858096599577,1.209052403026074
1740113655215713300,3.50171337890625,-0.34784663846492764,-1.6921633981138466,1.3908796272508799
1740113655225752300,3.51175244140625,-0.1345978555381298,-1.7438555914282798,1.266942281936854
1740113655235791000,3.521791015625,0.3519920677065849,-1.5745318749457597,1.1839915384624153
1740113655245830400,3.531830322265625,1.0730103400290012,-1.1837053419321775,0.6045607979023829
1740113655255869400,3.541869384765625,0.8665735752046108,-1.0594459250569344,-0.29274807077310977
1740113655265908200,3.551908203125,-0.11561260282741859,-1.39073481195271,-1.1294120262086391
1740113655275947300,3.561947265625,-0.9381588019907474,-1.756734946745634,-1.6136021948352455
1740113655285986300,3.571986328125,-1.4005156167328356,-2.0231541788458824,-1.2449889549344777
1740113655296025300,3.582025390625,-1.1767875253677367,-1.9941998870402573,-0.15990396356713027
1740113655306064400,3.592064453125,-0.1887163992166519,-1.635734823927283,1.0975124747313558
1740113655316103200,3.602103271484375,1.0112450809895992,-1.1179542281270027,1.732428188484907
1740113655326143200,3.612143310546875,1.6517115607380866,-0.6485661995738744,1.095652160752192
1740113655336182300,3.622182373046875,1.3202666064977646,-0.4336883541405201,0.019586524805799126
1740113655346221300,3.63222119140625,0.5325719587514177,-0.5783236195683479,-0.8798517936464398
1740113655356260400,3.64226025390625,-0.1263151803612709,-0.7944353907108307,-1.250004591139406
1740113655366299400,3.65229931640625,-0.5099813202261925,-0.9448878179848194,-0.7565079572461545
1740113655376338200,3.662338134765625,-0.5354185803541913,-0.8314689440757036,0.33996856203358616
1740113655386377200,3.672377197265625,-0.5042050749123096,-0.27779402807354925,1.28899877705276
1740113655396416500,3.68241650390625,-0.4784592237591743,0.34702187807857987,1.726459489338845
1740113655406455300,3.692455322265625,-0.5474176091730595,0.7087772149085998,1.7775607310228048
1740113655416494300,3.702494384765625,-0.645120443034172,0.7138391744732856,1.613860553510487
1740113655426533000,3.712533203125,-0.7115852580666542,0.6134679981857538,1.3915000972367821
1740113655436572400,3.722572509765625,-0.6380664328694343,0.6468997276663779,1.2757792299956083
1740113655446611500,3.732611572265625,-0.5405740268886089,0.8588836052238941,1.2036248250193893
1740113655456650200,3.742650146484375,-0.41872576280832285,1.0106377627462149,1.0806420039512217
1740113655466689300,3.752689208984375,-0.2078092222213745,0.9538064529776573,0.9414183152433484
1740113655476728300,3.762728271484375,0.013959570035804062,0.8319260401934385,0.6947172715045511
1740113655486767400,3.772767333984375,0.2567091362024657,0.7990969527810812,0.2504787721792236
1740113655496807400,3.782807373046875,0.43791912357807156,0.8588257375568151,-0.16451003259047864
1740113655506846500,3.792846435546875,0.5447299409916624,0.9541717791587114,-0.3169427104288712
1740113655516885200,3.80288525390625,0.6781541131079196,1.1197960566014051,-0.24508747106231749
1740113655526924300,3.81292431640625,0.6499322272300719,1.3382833247035741,-0.13812343584839254
1740113655536963300,3.82296337890625,0.5166939696073531,1.5281640915244816,-0.07945420659556984
1740113655547002400,3.83300244140625,0.39718616770599036,1.634860379180312,-0.11960709755737334
1740113655557041400,3.84304150390625,0.15059976332280783,1.699201041665673,-0.3520602010393515
1740113655567080200,3.853080078125,-0.11211365479575469,1.7326158200114965,-0.46397864379025994
1740113655577119200,3.863119140625,-0.23528755972292273,1.6795955929636954,-0.5111083514947444
1740113655587158500,3.873158447265625,-0.17698270680308342,1.5678484516590834,-0.6229566881515085
1740113655597197300,3.883197265625,-0.16049451333880424,1.4769079515397547,-0.6995594508387148
1740113655607236400,3.893236328125,-0.14601362284263594,1.3090911324888468,-0.755537723974511
1740113655617275100,3.903275146484375,-0.1084334867119789,1.0557511621922253,-0.656082128161937
1740113655627314400,3.913314453125,0.11004325999617576,0.7465273921102284,-0.47442434221990404
1740113655637353500,3.923353515625,0.2833843771602027,0.4433984317719936,-0.4711484623543918
1740113655647392300,3.933392333984375,0.37280104697942734,0.24647300713658332,-0.7259899232551456
1740113655657432300,3.943432373046875,0.3019008615816943,0.019015081593394278,-1.0518086351115257
1740113655667471400,3.953471435546875,0.22578794650435446,-0.24353578464090822,-0.9595994302306323
1740113655677510100,3.96351025390625,0.3681178575992584,-0.5865583639502525,-0.46584334168359637
1740113655687549400,3.973549560546875,0.4397790722310543,-0.9202841226041316,-0.0453591909006238
1740113655697588200,3.983588134765625,0.21833295432329178,-1.0329694215416907,0.26291969954669475
1740113655707627300,3.993627197265625,-0.014161211821436882,-1.00712186357975,0.6074150548223406
1740113655717666300,4.003666259765625,-0.3278583279252052,-1.105590421116352,0.7861618486884981
1740113655727705300,4.013705322265625,-0.461790413030982,-1.4304922373235225,1.0378126237891614
1740113655737744400,4.023744384765625,-0.19382687409818172,-1.6028408545851707,1.3145897299051283
1740113655747783400,4.033783447265625,0.6275193198919296,-1.5739871005445718,0.725100792395696
1740113655757822200,4.043822265625,0.4198644114494324,-1.6297364602953195,-0.8327388909462838
1740113655767861200,4.053861328125,-0.7192980244010686,-1.7915093230068682,-1.743541703173518
1740113655777900300,4.063900390625,-1.1228992833137512,-1.9141630582511424,-1.8214223768420517
1740113655787939300,4.073939208984375,-1.1654185746133328,-1.9340274501502512,-0.9932403454825282
1740113655797978400,4.083978271484375,-0.7260498367488384,-1.9215812255531548,-0.1006793654538691
1740113655808017200,4.09401708984375,0.07458149512582458,-1.7438193510711193,0.7622652786638587
1740113655818056400,4.104056396484375,0.9242916046798229,-1.577576649469137,1.4059716901816426
1740113655828096500,4.114096435546875,1.325277128136158,-1.51113989148736,1.230651363632828
1740113655838135300,4.12413525390625,1.3513538186788558,-1.3326204766362906,0.6051431643676013
1740113655848174300,4.13417431640625,1.2612357408583164,-1.0317366648763417,0.1839988691754639
1740113655858213400,4.14421337890625,1.1274784277975558,-0.7880038963586091,0.23488135354220865
1740113655868252200,4.154252197265625,0.8851157785892486,-0.5326929182499647,0.6429084660731256
1740113655878291500,4.16429150390625,0.7682488100528717,-0.3272282133281231,1.1085928178027271
1740113655888330200,4.174330322265625,0.8308195402562618,-0.19739830284416673,1.316337011963874
1740113655898369300,4.184369384765625,0.8213941247850656,0.02228372800052166,1.1214537606805561
1740113655908408300,4.194408203125,0.5896025539517402,0.27788579801023006,0.7324565619859844
1740113655918447400,4.204447265625,0.24473230094909668,0.4611567913025617,0.2568976627781987
1740113655928485600,4.214485595703125,-0.15333002853691577,0.5524842449128627,-0.13836228610556572
1740113655938524400,4.2245244140625,-0.4440700474232435,0.5974637888461352,-0.35152437712959944
1740113655948563500,4.2345634765625,-0.5005728558897972,0.6453501601368189,-0.38322840603478253
1740113655958602800,4.244602783203125,-0.5368687426298856,0.7955138335973024,-0.1761603941021487
1740113655968641500,4.2546416015625,-0.6346294441580772,1.040565283498168,0.05168894191142171
1740113655978680600,4.2646806640625,-0.6411176371335983,1.2896803295761345,0.33052232297006995
1740113655988719400,4.27471923828125,-0.5204220502197742,1.481042274865508,0.5943760884964838
1740113655998759400,4.284759521484375,-0.4494926569938659,1.5237597190856933,0.664875675470382
1740113656008798700,4.294798828125,-0.2608697812795639,1.394401517766714,0.6215756090566515
1740113656018837800,4.304837646484375,0.013795881073805503,1.2801800953030587,0.46458081093449144
1740113656028876500,4.31487646484375,0.12986322823166846,1.2578519436389206,0.11854608072973787
1740113656038915600,4.32491552734375,0.19898411073088645,1.420554780676961,0.009915317879989742
1740113656048954400,4.334954345703125,0.2675321617782116,1.7235650830715894,0.18090441029146312
1740113656058993700,4.34499365234375,0.21996026326417922,1.8443869267135857,0.18344788422919808
1740113656069032700,4.35503271484375,0.31629063972830773,1.7316589576780794,0.07859598233103751
1740113656079071500,4.365071533203125,0.6134031162559985,1.3945499863266944,0.1519164719445631
1740113656089110500,4.375110595703125,0.8514730367064476,0.9188841926783323,-0.011005743465200066
1740113656099149600,4.385149658203125,0.895085383939743,0.7265408351361751,-0.2901537799635902
1740113656109188600,4.395188720703125,0.8032821295112371,0.7789923223853111,-0.5307276825916022
1740113656119227600,4.4052275390625,0.4730500581920147,0.7595692445129155,-0.7494372882075607
1740113656129266400,4.415266357421875,0.20167758759856222,0.6889683525890111,-0.8077282221999019
1740113656139305500,4.425305419921875,0.015519065304333344,0.5632096370667219,-0.6743705759812146
1740113656149344800,4.4353447265625,-0.09287641835166141,0.37790626116394993,-0.34171412705928084
1740113656159384600,4.445384521484375,-0.1959843443930149,0.20210662666559218,0.03320873437970877
1740113656169423600,4.455423583984375,-0.2632920399904251,-0.08578735513985157,0.26844248155616224
1740113656179462700,4.465462646484375,-0.45247313410937784,-0.2817085711687803,0.4438167302493006
1740113656189501400,4.47550146484375,-0.5605915635228157,-0.46219197956919666,0.6565200081225484
1740113656199540700,4.485540771484375,-0.5673398687392472,-0.7910270435720682,0.8092820275131613
1740113656209579500,4.49557958984375,-0.49181321085095403,-1.2581430355399845,1.0016579721506684
1740113656219618600,4.50561865234375,-0.297194309592247,-1.632952499732375,1.0769796820513904
1740113656229657600,4.51565771484375,0.21713936062455175,-1.6307073511540888,1.029143068186566
1740113656239696400,4.5256962890625,0.7886930476665497,-1.2904098128944634,0.24737156341150401
1740113656249735700,4.535735595703125,0.35722003148794174,-1.0924936236560343,-0.9729610891722142
1740113656259774700,4.545774658203125,-0.41258009966015813,-1.4600152689278125,-1.736151739052683
1740113656269813500,4.5558134765625,-0.9752888014674186,-1.9332915370911359,-1.7762980176106093
1740113656279852500,4.5658525390625,-1.3301450264334678,-2.2517700422525406,-1.0691722962360828
1740113656289891600,4.5758916015625,-1.0272796854674815,-2.1820026785433293,0.23506737763360142
1740113656299930600,4.5859306640625,0.0878618050600402,-1.6007219627350568,1.564080769688636
1740113656309969700,4.5959697265625,1.1126163742303847,-0.8256243097007274,1.9710057661965488
1740113656320008400,4.606008544921875,1.3540671692907809,-0.32983108930289745,0.8399141894031316
1740113656330048500,4.616048583984375,0.9840776726007461,-0.29952596741020676,-0.6623786710228771
1740113656340087600,4.626087646484375,0.5217617743909359,-0.3988847517848015,-1.4946166267096996
1740113656350126600,4.636126708984375,0.18091418276680632,-0.4982657479912042,-1.6449289148606359
1740113656360165600,4.64616552734375,-0.09162733160601928,-0.4810989246129989,-1.0913076287418604
1740113656370204700,4.65620458984375,-0.06778935076766647,-0.15763620129823683,-0.12368468572720885
1740113656380243500,4.666243408203125,0.010502680180734024,0.4444312819510698,0.7632105236247182
1740113656390282800,4.67628271484375,-0.043246431963774375,1.0846931790381669,1.3417742355592548
1740113656400321500,4.686321533203125,-0.19372107563614843,1.4193763845473526,1.5143290429174898
1740113656410360600,4.696360595703125,-0.24904314988553522,1.4180191247195004,1.4203141037888825
1740113656420399600,4.706399658203125,-0.40306992851495743,1.2950953403621912,1.249941901166737
1740113656430438400,4.7164384765625,-0.4461714036166668,1.0050690227031707,0.9202484667688607
1740113656440477700,4.726477783203125,-0.3776204299598932,0.7339484810441732,0.6080755280250683
1740113656450516500,4.7365166015625,-0.2004243726670742,0.6041442895233631,0.4451587559754029
1740113656460555500,4.746555419921875,-0.04308393031186424,0.5161678999066353,0.27297376831024883
1740113656470594600,4.756594482421875,0.2111906813532114,0.46938510594367977,0.11821359737236052
1740113656480633600,4.766633544921875,0.4123837003052234,0.44738837819099425,0.01724730473589152
1740113656490672600,4.776672607421875,0.2911626282125711,0.5318132128059864,-0.057516186760179694
1740113656500712700,4.786712646484375,0.17204934205412864,0.6749538557618856,-0.028552725267410276
1740113656510751500,4.79675146484375,0.07971943340301513,0.7765916909843683,0.0167212715677917
1740113656520790500,4.80679052734375,-0.06254851837158203,0.81498893391788,0.020904402471333742
1740113656530829600,4.81682958984375,-0.2100532017558813,0.9095844494134188,0.007641162402927875
1740113656540868600,4.82686865234375,-0.4098310932129621,1.063487893924117,-0.004770063946023583
1740113656550907600,4.83690771484375,-0.49105917761325835,1.1688707608938216,0.18292217985466122
1740113656560946400,4.846946533203125,-0.38934535454511643,1.2410820106238125,0.41471568691674615
1740113656570985500,4.8569853515625,-0.324477453315258,1.3153864332407712,0.4486118190387264
1740113656581024800,4.867024658203125,-0.36839959715008735,1.3252537472605705,0.30530060528889297
1740113656591063600,4.8770634765625,-0.4954372465670108,1.1379863778084516,-0.29222419302947816
1740113656601102600,4.8871025390625,-0.5211690691947937,0.8220973046183586,-0.9175972216077148
1740113656611141600,4.8971416015625,-0.3258896582007408,0.505554735955596,-1.0962654703449457
1740113656621180400,4.907180419921875,-0.004295066845417022,0.2679372354477644,-0.962688993743807
1740113656631219700,4.9172197265625,0.49600890897512434,0.0468383235424757,-0.6476748036921024
1740113656641258500,4.927258544921875,0.8108288916289806,-0.14654256035387514,-0.4093023200985044
1740113656651297500,4.937297607421875,0.8626935189008712,-0.19633096587359905,-0.21135325150378048
1740113656661337600,4.947337646484375,0.8600982417106627,-0.31262276487052437,-0.03993007852397859
1740113656671376400,4.95737646484375,0.792498869690299,-0.5646908155351877,0.028969379776902494
1740113656681415700,4.967415771484375,0.6038280631810427,-0.6146855572819709,0.04034311630427837
1740113656691454700,4.977454833984375,0.2878162403941154,-0.4841039516478777,0.10961370947249233
1740113656701493500,4.987493408203125,-0.08936053745150566,-0.3607154723882675,0.2729592283282429
1740113656711532500,4.997532470703125,-0.3661842957207933,-0.3758037359267473,0.21353925377335398
1740113656721571600,5.007571533203125,-0.38432781864404675,-0.47263972382545466,-0.03802760590352118
1740113656731610600,5.017610595703125,0.36961014198362824,-0.6822714852988719,-0.4326756699666381
1740113656741649700,5.027649658203125,0.8210562711328268,-1.070640103766322,-1.6557584980413316
1740113656751688400,5.0376884765625,-0.07995733381211757,-1.7053607333391905,-2.466703417265415
1740113656761727500,5.0477275390625,-0.35036066711246966,-1.9081717088818548,-1.8890651496127246
1740113656771766800,5.057766845703125,-0.445911912430264,-1.9157552958786486,-0.9915366103045642
1740113656781805600,5.0678056640625,-0.5477818028429523,-2.2219337069153786,-0.49528998358342796
1740113656791844600,5.0778447265625,-0.3051099050223827,-2.13298876452744,0.17188008643444627
1740113656801883400,5.08788330078125,0.13471477818237618,-1.6577099243700504,0.6288173968784511
1740113656811922400,5.09792236328125,0.2678787832587957,-1.2576286562770604,0.5074066108999774
1740113656821961700,5.107961669921875,0.38287352818250653,-0.9595850363790989,0.299225925017707
1740113656832001800,5.118001708984375,0.4332499627232551,-0.7202800211757421,0.10423409879337996
1740113656842040600,5.12804052734375,0.3397499143142253,-0.46285482739210126,0.10334536979272961
1740113656852079600,5.13807958984375,0.514096354329586,-0.11360007569491863,0.7328325556915253
1740113656862118400,5.148118408203125,0.6714274352014065,0.18840952522456644,1.6551204923987388
1740113656872157700,5.15815771484375,0.8832610906332731,0.1976221747279167,2.0119494787424803
1740113656882196700,5.16819677734375,1.1290198120206594,0.17688099999427795,1.7748380280606448
1740113656892235500,5.178235595703125,1.1979127309828996,0.23125790234804153,1.2416934205204249
1740113656902274600,5.188274658203125,0.976425696542859,0.22942308813631535,0.6183139038469642
1740113656912313300,5.198313232421875,0.7245107906132936,0.1776227582722902,-0.00017334727291017768
1740113656922352600,5.2083525390625,0.44736094219479705,0.12301029359698294,-0.5009430043764412
1740113656932392700,5.218392822265625,0.13019052395727485,0.15128887809813021,-0.667941492781788
1740113656942431700,5.228431640625,-0.09553776478171348,0.25800854662954803,-0.4871503336064517
1740113656952470500,5.238470458984375,-0.21593641457557677,0.40341947260499,-0.07333937697708606
1740113656962509600,5.248509521484375,-0.3162871325969696,0.5251847345769405,0.2992697276268154
1740113656972548600,5.258548583984375,-0.5086164250811561,0.6173077224791049,0.5546155943857506
1740113656982587600,5.268587646484375,-0.5401075784206391,0.7079454402595758,0.7222684915792197
1740113656992626700,5.278626708984375,-0.5053519433924928,0.773352855193615,0.6769976365491748
1740113657002666800,5.288666748046875,-0.6238982067853212,0.8622118728637694,0.596268076255545
1740113657012705500,5.29870556640625,-0.5759854954769834,0.9480816455900668,0.6636403615217655
1740113657022744600,5.30874462890625,-0.478961291529797,0.9457225152432918,0.7382199478182941
1740113657032783600,5.31878369140625,-0.4304833840867504,0.8963158025175333,0.727250956166908
1740113657042822700,5.32882275390625,-0.3105453375419602,0.8955968405932188,0.594770567706786
1740113657052861700,5.33886181640625,-0.02128068843781948,0.880187674537301,0.46019496053308245
1740113657062900500,5.348900390625,0.18929387031104414,0.8931202213466167,0.29827479830533266
1740113657072939500,5.358939453125,0.2959294042229652,0.9158101920604705,0.07411421554079278
1740113657082978800,5.368978759765625,0.4179483486950397,0.8836088811576366,-0.10860662392233497
1740113657093017600,5.379017578125,0.5518061995208263,0.8032534879386425,-0.22355925587052478
1740113657103056600,5.389056640625,0.6034744274377822,0.7250374448359013,-0.4295820148002356
1740113657113095400,5.399095458984375,0.5369406388223171,0.7151531796813011,-0.7244652709711342
1740113657123134700,5.409134765625,0.3401537458747625,0.5653495717048644,-0.935721930232644
1740113657133173800,5.419173828125,0.2146405295461416,0.3227870160102844,-0.9021153556417674
1740113657143212500,5.429212646484375,0.24266486529158426,0.1456207693338394,-0.5907345536563545
1740113657153251600,5.43925146484375,0.3533469894468784,0.019168226328492164,-0.18944047570750117
1740113657163291600,5.449291748046875,0.3527157058060169,-0.13379355341792107,0.10834557096650824
1740113657173330400,5.459330322265625,0.2767395323182456,-0.2782417718410492,0.2721994412031956
1740113657183369700,5.46936962890625,0.13867840285003186,-0.3646697629719972,0.41618835328519344
1740113657193408800,5.47940869140625,-0.02370238089310005,-0.510289947783947,0.5354539439285174
1740113657203447600,5.489447509765625,-0.3045341509610414,-0.6257078865557909,0.7606979562819004
1740113657213486600,5.499486572265625,-0.39296763669550416,-0.6474731436401605,1.066652130108699
1740113657223525600,5.509525634765625,0.28800211835503575,-0.5011579623013734,0.8319733864665031
1740113657233564700,5.519564697265625,0.9186538910537958,-0.35322950054705143,-0.37416963191889224
1740113657243603700,5.529603759765625,0.34224282710850235,-0.6754425160616636,-1.3551425434373319
1740113657253642500,5.539642578125,-0.4710545004606247,-1.2119026778906583,-1.8812670430824159
1740113657263681500,5.549681640625,-1.2035960373163224,-1.74154263831079,-1.5641769235394893
1740113657273720600,5.559720458984375,-1.3787497751265763,-2.068399680238962,-0.5406291911419481
1740113657283759600,5.569759521484375,-0.7084650802195072,-1.771789308014512,0.725266431286186
1740113657293798700,5.579798583984375,0.24969138466119764,-1.0991630184173584,1.6247139559581876
1740113657303837400,5.58983740234375,1.1683856077253818,-0.4494803820341825,1.1202828172050416
1740113657313876700,5.599876708984375,1.1799813529729843,-0.3042231853157282,-0.3242235150868073
1740113657323915800,5.609915771484375,0.10941314539909362,-0.6729957074314356,-1.4817533457443117
1740113657333955600,5.61995556640625,-0.5589847128480673,-0.9479875375658273,-2.016745626977831
1740113657343994600,5.62999462890625,-0.8562275377571582,-1.129585629209876,-1.5326405062861739
1740113657354033700,5.64003369140625,-1.0767559562981128,-1.1228870083540676,-0.29388423519618806
1740113657364072400,5.650072509765625,-0.9216524883478879,-0.5404635522514581,1.0371747642770408
1740113657374111700,5.66011181640625,-0.736761200377345,0.20029285524189472,1.8270948695205151
1740113657384150500,5.670150634765625,-0.6324860023885965,0.5265361491858959,2.0992963382840157
1740113657394189600,5.680189453125,-0.578405452632904,0.5187362890899181,2.0968758331388235
1740113657404228600,5.690228515625,-0.7460878316491841,0.4652893610626459,1.8883850583940742
1740113657414267600,5.700267578125,-0.9292214622974395,0.41213001780509945,1.6549463048756121
1740113657424306700,5.710306640625,-0.9164566732704639,0.49923196267485614,1.4607546891182661
1740113657434345700,5.720345703125,-0.8084569018006325,0.6020289048045874,1.1663698109235614
1740113657444384500,5.730384521484375,-0.64600073300004,0.6120902800917625,0.8143985668092966
1740113657454423600,5.740423583984375,-0.36972353923022744,0.5794535003811121,0.558214203399606
1740113657464462600,5.750462646484375,0.02125380499747116,0.5637392138987779,0.34202596948742864
1740113657474501600,5.760501708984375,0.2781757208675146,0.6230541571766137,0.09585406418927013
1740113657484540700,5.770540771484375,0.42077100490033625,0.6505138265103101,-0.18671711515821515
1740113657494579500,5.780579345703125,0.49694414399862286,0.6865472629219294,-0.34018512739371504
1740113657504619500,5.79061962890625,0.4974877493560314,0.8380605974256992,-0.24594304671203715
1740113657514658800,5.800658935546875,0.43007191720902915,1.0518284357905388,-0.03774800351085141
1740113657524697600,5.810697509765625,0.21690087569355965,1.2051602178931236,0.08956817058650776
1740113657534736600,5.820736572265625,0.07476151873469353,1.306136374336481,0.12572883184067904
1740113657544775700,5.830775634765625,-0.19142507365345954,1.4005384130865335,0.0484261407231912
1740113657554814500,5.840814453125,-0.3273053702175617,1.4585773450791835,-0.06816897033555433
1740113657564853800,5.850853759765625,-0.20440730482339858,1.330903735846281,-0.22280829137274993
1740113657574892500,5.860892578125,-0.02140285807934124,1.0968073952019215,-0.4123577621463686
1740113657584931600,5.870931640625,0.09249708191156386,0.832009042301774,-0.6805342131774872
1740113657594970600,5.880970703125,0.15114333214759826,0.6128583418548107,-0.7886760234665126
1740113657605009700,5.891009765625,0.09226210411190987,0.518840918508172,-0.6804002845995127
1740113657615048700,5.901048583984375,-0.08511105418032966,0.4604658864289522,-0.5781934538500383
1740113657625087500,5.91108740234375,-0.18412322620749472,0.414952674010396,-0.5030010328847915
1740113657635126500,5.92112646484375,-0.1254769668383058,0.2727373292058706,-0.4617889151936397
1740113657645165600,5.93116552734375,0.02968787591033615,-0.02602934426963329,-0.44659046927895396
1740113657655204600,5.94120458984375,0.305411518317461,-0.41265258037447927,-0.2913250157000497
1740113657665244700,5.95124462890625,0.5244377156019211,-0.7589128264307975,-0.1316629893963225
1740113657675283700,5.96128369140625,0.5107587343394756,-0.940936450010538,-0.1059963957581669
1740113657685322500,5.971322509765625,0.26666297772824765,-0.9533487723380326,-0.15954758787751197
1740113657695361500,5.981361572265625,-0.01194177992300829,-0.9712170219838618,-0.17925954742757602
1740113657705400800,5.99140087890625,-0.23554420136511325,-1.0033423450410366,-0.14378448468423446
1740113657715439600,6.001439697265625,0.20288111816942692,-1.098613567841053,-0.10401735077016055
1740113657725478700,6.011478759765625,0.9582581716895103,-1.2320967401355505,-0.7961875681404024
1740113657735517400,6.021517333984375,0.277639714294672,-1.5589403380602598,-1.5492876897044479
1740113657745556500,6.031556396484375,-0.4382306737452745,-1.7782675641179084,-1.4985012130580841
1740113657755595800,6.041595703125,-0.5358177722722292,-1.917203741121292,-0.9075362116467207
1740113657765634600,6.051634521484375,-0.5961334170252084,-2.1355799500644204,-0.13113548579034395
1740113657775673600,6.061673583984375,-0.21744448105096817,-2.1551099954426287,0.3860131779151037
1740113657785712600,6.071712646484375,0.23998949033617972,-1.8776672650247812,0.923422128368914
1740113657795751700,6.081751708984375,0.4533727132976055,-1.4603583832770586,1.0318637983873487
1740113657805790700,6.091790771484375,0.43591245993077754,-1.01195235247612,0.6158687026519328
1740113657815829500,6.10182958984375,0.18624387162327766,-0.5710521672606468,0.22422504456918685
1740113657825868500,6.11186865234375,-0.10499883608818053,-0.32544775965213774,0.0931545046406798
1740113657835908600,6.12190869140625,-0.2689642221416347,-0.28901801739931104,0.4953113551650196
1740113657845947400,6.131947509765625,-0.2433867132927291,-0.280819513374567,1.0620376951158046
1740113657855986700,6.141986572265625,-0.0107183778911829,-0.2184147873878479,1.493700388647616
1740113657866025700,6.152025634765625,0.43124505264163016,-0.09017653000950812,1.5750513687752186
1740113657876064500,6.162064453125,0.7305009709388017,-0.03556055820286274,1.4296934881612657
1740113657886103600,6.172103515625,0.5230722724676132,-0.012782324683666229,0.9235235429167747
1740113657896142800,6.182142822265625,0.3284732449531555,0.019604279658198356,0.29572394477874037
1740113657906181600,6.192181640625,0.18187807762920855,-0.02822831561863422,-0.15236687346003017
1740113657916220700,6.202220703125,0.08448038246082142,-0.014624737679958342,-0.3103696156488731
1740113657926259500,6.212259521484375,0.0797697114186827,0.16724866377413272,-0.15758556708954274
1740113657936298200,6.22229833984375,-0.03955166453248821,0.3917395562052727,0.12034844484343193
1740113657946337000,6.2323369140625,-0.2655558932691812,0.7069353864341974,0.39267614293564107
1740113657956376000,6.2423759765625,-0.21166882025897502,1.0234113196015358,0.5539679075993598
1740113657966415000,6.2524150390625,-0.17502865012586116,1.28883101927042,0.665822162540257
1740113657976454100,6.2624541015625,-0.13083879526555536,1.3855711455792188,0.6860919934350996
1740113657986493200,6.2724931640625,-0.042461423632502555,1.388400231525302,0.6091413671582937
1740113657996533200,6.282533203125,0.05213701903906185,1.4865467175006866,0.3367472984321415
1740113658006572000,6.292572021484375,0.1646563091933727,1.6472002207934855,0.08563094073543324
1740113658016611000,6.302611083984375,0.11233400128185748,1.763504879271984,-0.047530539023759776
1740113658026650000,6.312650146484375,0.15770634392499921,1.7797995959907769,-0.1653820661846548
1740113658036689200,6.322689208984375,0.3488327268928289,1.7599807967990635,-0.14422284870203583
1740113658046728200,6.332728271484375,0.5483394001930951,1.638950278842449,-0.12202707297960295
1740113658056767000,6.34276708984375,0.7722948705732822,1.411166190084815,-0.18641639691228046
1740113658066806000,6.352805908203125,0.9156967948138713,1.169410859119892,-0.31129747108351435
1740113658076845000,6.362844970703125,0.7763461917906999,0.9886673384785651,-0.5026814455416053
1740113658086884000,6.372884033203125,0.5487830523073673,0.8777695074796676,-0.5888916292034089
1740113658096923100,6.382923095703125,0.3061486004203558,0.8075333572149276,-0.6337595294557511
1740113658106962000,6.3929619140625,0.12072597291893325,0.6404559583544731,-0.668778089736402
1740113658117001000,6.4030009765625,0.07432371183931827,0.3447159392237663,-0.6191014740280807
1740113658127040300,6.413040283203125,0.09968377854526042,0.017781740406155586,-0.43430433061439544
1740113658137079000,6.4230791015625,0.03804127366926986,-0.2589034496426582,-0.1532428434438072
1740113658147118000,6.4331181640625,-0.16454700360000132,-0.5748661725908517,0.14756352829891256
1740113658157158100,6.443158203125,-0.3512047167211771,-0.8943179066985845,0.6148647132411599
1740113658167197000,6.453197021484375,-0.4071218342542648,-1.1518664346009493,1.115655157404393
1740113658177236000,6.463236083984375,-0.4797264672160148,-1.3364216224849224,1.4000658271387219
1740113658187275300,6.473275146484375,-0.31631051347255706,-1.4773983654052019,1.5296856020033358
1740113658197314000,6.48331396484375,0.3965782284080982,-1.3427999253451823,1.1743796605084091
1740113658207353000,6.49335302734375,0.9803414086818695,-1.0607850647062063,-0.1420761737958528
1740113658217391900,6.503391845703125,0.4074573498189449,-1.225168986698985,-1.56943046015352
1740113658227431200,6.51343115234375,-0.6364367858409882,-1.7262965538620947,-2.5024402088180184
1740113658237470200,6.52347021484375,-1.6916718152046202,-2.154835270154476,-2.2341791482433675
1740113658247509000,6.533509033203125,-1.858185734963417,-2.3722885190337895,-0.7812069296948612
1740113658257548000,6.543548095703125,-0.9165642252981662,-2.1014988167643547,0.9717853233911097
1740113658267587000,6.553587158203125,0.213002078156732,-1.385924781322479,2.0234411790937186
1740113658277626000,6.563626220703125,1.1880652907073497,-0.757774177789688,1.6010266447700559
1740113658287665200,6.5736650390625,1.242159284466505,-0.5670832636296749,0.10376133018247782
1740113658297704000,6.583703857421875,0.43808045161962506,-0.7933487645179033,-1.1404647506207226
1740113658307743000,6.593742919921875,-0.21368719261037183,-1.146930147242546,-1.5893158948406576
1740113658317783000,6.603782958984375,-0.6922726548314094,-1.3240806118279695,-1.0947684367202222
1740113658327822000,6.613822021484375,-0.9610802433729171,-1.0358435156732797,0.1916347343487665
1740113658337861000,6.623861083984375,-0.9129004420936108,-0.3186988699138164,1.4822547193951905
1740113658347900200,6.633900146484375,-0.8504922089755534,0.502404747492075,2.217387587918341
1740113658357939000,6.64393896484375,-0.7950538148701191,0.9820289233773947,2.3391927435092628
1740113658367978000,6.65397802734375,-0.7806453502893448,1.0800719489783048,1.990341750307381
1740113658378017300,6.664017333984375,-0.889499692761898,1.05577980376482,1.4630553672760724
1740113658388056000,6.67405615234375,-0.9835001649737357,1.0543284359127283,0.9925707756578922
1740113658398095000,6.68409521484375,-0.9766729493021964,1.0568576621294021,0.6277283595327288
1740113658408134000,6.6941337890625,-0.7716027966558933,1.0253525167971849,0.4496172332216054
1740113658418173200,6.704173095703125,-0.39357261685132977,0.9259984085977077,0.29512572315726426
1740113658428212200,6.714212158203125,0.029807109242677685,0.7637380546301603,0.09747117139655165
1740113658438251000,6.7242509765625,0.3653577452361583,0.6060732117593288,-0.09501231613550334
1740113658448290000,6.7342900390625,0.5916892970979213,0.5118342546164989,-0.25878586941128595
1740113658458329000,6.7443291015625,0.7645511245787143,0.5599234550029039,-0.19328242849055677
1740113658468368100,6.7543681640625,0.9505717088401318,0.589116231739521,-0.05037290457652416
1740113658478407200,6.7644072265625,1.094791963726282,0.5354273116499185,-0.01840737975751981
1740113658488447200,6.774447265625,0.9790005154669285,0.6126520056277514,0.025820026067621075
1740113658498486000,6.784486083984375,0.6003250234961509,0.824446498093009,0.0015161812831880523
1740113658508525000,6.794525146484375,0.197084396323096,1.0847013623446224,-0.021329400117485783
1740113658518564000,6.804564208984375,-0.017725078315474093,1.3029963227450847,0.14573190155811608
1740113658528603100,6.81460302734375,-0.0624538258254528,1.4778162985563277,0.2894355486916378
1740113658538642200,6.82464208984375,-0.12847323517799378,1.4429115739136933,0.2000587724913843
1740113658548681000,6.834680908203125,-0.2104980229139328,1.3461200096786021,-0.06141625380548648
1740113658558720000,6.844719970703125,-0.2887280945420265,1.1943377951055765,-0.44279900457412
1740113658568759000,6.854759033203125,-0.3022340755914338,0.9819096809118986,-0.7891657066795974
1740113658578798000,6.864798095703125,-0.22234863797174764,0.7713783402502536,-0.8903999295372516
1740113658588837000,6.874837158203125,-0.13387072857366875,0.6041419514358043,-0.6663744626607746
1740113658598876000,6.8848759765625,-0.08814940809607505,0.45623277890384195,-0.32160372450985014
1740113658608915200,6.894915283203125,0.03918400939702987,0.23669454044401644,-0.05088809212362393
1740113658618954200,6.904954345703125,0.14306288327826186,-0.08047989638149738,0.0795932680063881
1740113658628993000,6.914992919921875,0.23852818561196326,-0.40784430330991744,0.088109532743413
1740113658639032000,6.925031982421875,0.3642272799015045,-0.6471843898266554,0.04576947046825662
1740113658649072000,6.935072021484375,0.43983635537624355,-0.8833236344754696,0.04851168184848502
1740113658659111000,6.94511083984375,0.5722130277335643,-1.1421581105351448,0.07724694234225898
1740113658669150200,6.955150146484375,0.44767947009205816,-1.2620470572412013,0.08462331632915884
1740113658679189000,6.96518896484375,0.42943186573982234,-1.290669925135374,0.1590596947627142
1740113658689228000,6.97522802734375,1.1349240676283836,-1.250577568721771,-0.2008558594195172
1740113658699267000,6.98526708984375,1.3255951080441475,-1.347289637979865,-1.4886758384838699
1740113658709306000,6.99530615234375,0.25272388422489167,-1.6384154413133858,-2.25796305167377
1740113658719345200,7.00534521484375,-0.34772505791187286,-1.9399018951416014,-1.8295685661576688
1740113658729384200,7.01538427734375,-0.7310615274310112,-2.1086977883577345,-0.7810282121270895
1740113658739423000,7.025423095703125,-0.5771007997751235,-2.1872212899744508,0.13851122958958148
1740113658749462000,7.0354619140625,0.01600887638158165,-1.9519664269447325,0.7898974550202489
1740113658759501000,7.0455009765625,0.4198503829240799,-1.4368553426146506,1.0616139167457819
1740113658769540000,7.0555400390625,0.5525719231963158,-0.9695955582618713,0.6465067828260361
1740113658779579100,7.0655791015625,0.32932197073698044,-0.4929530285358429,0.18221954801063983
1740113658789618000,7.075617919921875,0.06372926172190345,-0.1174047286748886,-0.037145324909966436
1740113658799657200,7.0856572265625,-0.16056699405312538,0.07223521512746811,0.0746428425247781
1740113658809697000,7.095697021484375,-0.1969429602921009,0.16215981620252132,0.7487756094284356
1740113658819736000,7.105736083984375,0.129830495005846,0.22532325160205363,1.5069018155261873
1740113658829775000,7.115775146484375,0.5953004733324051,0.2453150692731142,1.7419836600765586
1740113658839814100,7.125814208984375,0.9348246891319751,0.24023791213929652,1.5153960876271129
1740113658849853000,7.13585302734375,0.9583049334406852,0.14999942280948161,1.0140177605733274
1740113658859892200,7.145892333984375,0.8046896582216024,0.059786652442812914,0.40016843491978943
1740113658869931000,7.155930908203125,0.4678320312827825,0.07514496509432793,-0.1697875711346045
1740113658879970000,7.165969970703125,0.17750059319734574,0.10390578015446662,-0.41191553480420257
1740113658890009000,7.176009033203125,-0.037885199474857655,0.181157362139225,-0.21575177872367202
1740113658900048100,7.186048095703125,-0.1276607497513294,0.25694179418087004,0.06146381927425973
1740113658910087200,7.196087158203125,-0.3633598494172096,0.4393681533426046,0.22430581818781792
1740113658920126000,7.2061259765625,-0.49532852549552914,0.6827671598613262,0.3739534684175625
1740113658930164500,7.21616455078125,-0.46584991755485533,1.0231003539562225,0.46349148132782425
1740113658940203800,7.226203857421875,-0.5009025262355804,1.2808593097388743,0.43494931398704645
1740113658950242600,7.23624267578125,-0.48290275916457176,1.4662649769723415,0.3281078457068652
1740113658960281600,7.246281494140625,-0.45570963181257246,1.5441875900864601,0.26430987526345995
1740113658970320400,7.2563203125,-0.3181353908121586,1.4786170935451983,0.16490951676946133
1740113658980360400,7.2663603515625,-0.03813652790440246,1.4497475574135779,0.1541253801656887
1740113658990399500,7.2763994140625,0.19424599455939603,1.4746289006918667,0.20336634440310297
1740113659000438800,7.286438720703125,0.30287703140378,1.4629823020398616,0.16861180535349993
1740113659010477600,7.2964775390625,0.37686347411274906,1.4285282437741755,0.09848089642836712
1740113659020516600,7.3065166015625,0.49836336314678187,1.271879884469509,0.029374910104181615
1740113659030555400,7.316555419921875,0.6484978105127811,0.9964777199685573,-0.11271001325370743
1740113659040594700,7.3265947265625,0.6576303805172443,0.831473620250821,-0.35856494329087435
1740113659050633700,7.3366337890625,0.6937818903505801,0.7785971855878829,-0.6359218220561742
1740113659060672500,7.346672607421875,0.653873073810339,0.6540092674106359,-0.8771734412826597
1740113659070711600,7.356711669921875,0.30790391965508457,0.4640250402152538,-1.1148797160524875
1740113659080750600,7.36675048828125,-0.14458616558909415,0.3058861500918865,-1.1488150111410766
1740113659090789600,7.37678955078125,-0.3959340852856636,0.1353694244325161,-0.7526974590472877
1740113659100828700,7.38682861328125,-0.43236032040715217,-0.07395429400503635,-0.024873360901232808
1740113659110867500,7.396867431640625,-0.48850832408666606,-0.3419143258064985,0.5577852739304304
1740113659120906500,7.406906494140625,-0.48064533562660217,-0.7102075399726628,1.019101128252223
1740113659130945800,7.41694580078125,-0.4091887036561966,-1.1406535511910916,1.4011584446810186
1740113659140985600,7.426985595703125,-0.4429261380851269,-1.4483148942619561,1.5789119897261261
1740113659151024600,7.437024658203125,-0.28172902943491934,-1.570015858826041,1.7358105243995785
1740113659161063700,7.447063720703125,0.7344377258658409,-1.505988500073552,1.5032276570580898
1740113659171102500,7.4571025390625,1.5196727420330047,-1.2980565282553433,0.16593487776182592
1740113659181141500,7.4671416015625,0.9669897596776484,-1.4810937127918005,-1.3538605408027766
1740113659191180500,7.4771806640625,0.021660034011071548,-1.9029840771108864,-2.2707316400930284
1740113659201219600,7.487219482421875,-1.0292156219661235,-2.3494833975076674,-1.9936203335866332
1740113659211258600,7.497258544921875,-1.4042705853521824,-2.629689747419953,-0.7005232543695717
1740113659221297400,7.50729736328125,-0.6262275265157222,-2.212010863316059,0.6716330407761036
1740113659231336700,7.517336669921875,0.5532125591874122,-1.2377221788018942,1.5494659688808023
1740113659241375700,7.527375732421875,1.4367431144118308,-0.45815877853035925,1.1783764019943772
1740113659251414500,7.53741455078125,1.4808078815877437,-0.3759896138876676,-0.25421784910969436
1740113659261453600,7.54745361328125,0.5246785386204719,-0.6090659638345242,-1.3528997329466044
1740113659271492600,7.55749267578125,-0.24595630805240942,-0.7620002710521221,-1.6959551916122435
1740113659281531600,7.56753173828125,-0.5818062009871006,-0.6845429373621941,-1.1954890109673142
1740113659291570700,7.57757080078125,-0.7397370013177395,-0.4760796351462602,-0.13405801304038614
1740113659301610500,7.587610595703125,-0.7210311318039894,-0.06565759030282498,0.8527196757666766
1740113659311649500,7.5976494140625,-0.6274456701338291,0.4942845694005489,1.6037470096446573
1740113659321688600,7.6076884765625,-0.6135825644761324,0.9046499156206845,1.788069557816535
1740113659331727600,7.6177275390625,-0.6131523563653231,1.1133441039830445,1.6016864238530397
1740113659341766700,7.6277666015625,-0.7278641926944256,1.259782034918666,1.3677109331093729
1740113659351805700,7.6378056640625,-0.911919029840827,1.3895435563415288,1.1404930999323726
1740113659361844500,7.647844482421875,-0.991140450593829,1.4180308151572942,0.8349102436359971
1740113659371883500,7.657883544921875,-0.9510288049578666,1.2893833924561737,0.5025747337641194
1740113659381922600,7.667922607421875,-0.7561456998050212,1.1045201615363358,0.3015352614060044
1740113659391961600,7.677961669921875,-0.3542372162848711,1.026538511711359,0.2728675314567983
1740113659402000600,7.688000732421875,0.19805062927305697,0.9074012601554393,0.35557431010752916
1740113659412039400,7.698039306640625,0.5724123496979475,0.6965192063599824,0.2848316898916848
1740113659422078700,7.70807861328125,0.7155266891688108,0.5247065956711768,-0.015215716709895058
1740113659432117500,7.718117431640625,0.5681903480887412,0.5328168368905782,-0.341867710185796
1740113659442156500,7.728156494140625,0.14320025505549275,0.7497516148537396,-0.44967564887795597
1740113659452195600,7.738195556640625,-0.13776830226778983,0.9245622383147477,-0.33875502152536063
1740113659462235600,7.748235595703125,-0.27640754215121266,1.089519576281309,-0.15039991163546218
1740113659472274400,7.7582744140625,-0.3135059774458408,1.2351309932649135,-0.04896492377500981
1740113659482313700,7.768313720703125,-0.20641689108014105,1.3508850321233272,0.04034445887799375
1740113659492352500,7.7783525390625,-0.16562778457403182,1.3166209434717893,0.04200809950758703
1740113659502391600,7.7883916015625,-0.33997897382974623,1.09104693197906,-0.17187369322627782
1740113659512430600,7.7984306640625,-0.5102782573461532,0.9150760325670242,-0.3911561302941292
1740113659522469600,7.8084697265625,-0.4700362633287906,0.8353981002181768,-0.510080615882203
1740113659532508700,7.8185087890625,-0.31409868264198304,0.5850684176534414,-0.43155631054788823
1740113659542547500,7.82854736328125,-0.11324293282032012,0.2773866163164377,-0.2964861613228917
1740113659552586500,7.83858642578125,0.10162614478468894,0.0841693985491991,-0.2618796159092337
1740113659562625500,7.84862548828125,0.3089899613261223,-0.04215045798718929,-0.21906397201158104
1740113659572664600,7.85866455078125,0.4508019860267639,-0.18983400506973266,-0.11621003899760543
1740113659582703600,7.86870361328125,0.5472948595762253,-0.43261634099483487,-0.059043451126385475
1740113659592742700,7.87874267578125,0.5675906286299228,-0.6991273430317639,-0.022718192161340266
1740113659602781400,7.888781494140625,0.44130116723179813,-0.7975918089151381,0.06781959064230322
1740113659612820700,7.89882080078125,0.21321721874475477,-0.8473398824244737,0.2747571445956826
1740113659622860500,7.908860595703125,0.009229600638151168,-0.9886141469866037,0.4831869829334318
1740113659632899600,7.918899658203125,-0.2314811897099018,-1.0665741695016622,0.43281197316478937
1740113659642938600,7.928938720703125,0.0028770167410373687,-0.9456769225358962,0.4366413221945986
1740113659652977400,7.938977294921875,0.9005179303824901,-0.7264169164955615,-0.043593825195915994
1740113659663016400,7.949016357421875,0.8730734586179256,-0.8287801433831453,-1.2740310711540281
1740113659673055700,7.9590556640625,-0.03593406769037247,-1.3964081814140081,-1.751536062928289
1740113659683094500,7.969094482421875,-0.5097574483424425,-1.8705144706606864,-1.3103953469552099
1740113659693133600,7.979133544921875,-0.7562345471322536,-2.1362205860555172,-0.5429687765380368
1740113659703172600,7.989172607421875,-0.3419540732949972,-2.1160084036320446,-0.016443788066972047
1740113659713211600,7.999211669921875,0.16799217561781404,-1.7543080118596552,0.4020415353152901
1740113659723250700,8.009250732421876,0.6939765361398458,-1.1876216385930776,0.6620796150110662
1740113659733289500,8.01928955078125,0.8819856638699769,-0.7236965516209601,0.36683154411576685
1740113659743328500,8.02932861328125,0.5646797096192836,-0.5145487742722035,0.13398845493551342
1740113659753367600,8.039367431640626,0.20145020858347415,-0.4676479068875313,0.2759816083567217
1740113659763406600,8.049406494140625,0.08086158917546271,-0.4639963986426592,0.7038539331622421
1740113659773445600,8.059445556640625,0.1533586701095104,-0.40728199325203895,1.368166421791911
1740113659783485700,8.069485595703124,0.3876245221018791,-0.3194938196837902,1.8600071051716804
1740113659793524500,8.0795244140625,0.5857890966108068,-0.3089320936590433,1.888017247994989
1740113659803563500,8.0895634765625,0.7174339840948581,-0.2897568530678749,1.5017283584110437
1740113659813602600,8.0996025390625,0.5397516045898199,-0.21496552371680736,0.9111777830194682
1740113659823641600,8.1096416015625,0.2346878402641043,-0.22284604783356188,0.3060092467485927
1740113659833680600,8.1196806640625,0.015224457138776779,-0.1919020435154438,-0.05168671342171728
1740113659843719400,8.129719482421875,-0.0872018981128931,-0.05875555582940578,-0.03341889054864878
1740113659853758500,8.139758544921875,-0.236182499268651,0.05082125569880008,0.09185896667111665
1740113659863797800,8.1497978515625,-0.38874914221763607,0.2478063015669584,0.18831631224947049
1740113659873836500,8.15983642578125,-0.42579383803103116,0.5297668016701936,0.27669490772522987
1740113659883875600,8.16987548828125,-0.459776150599122,0.8209715154588222,0.24216018543876705
1740113659893914400,8.179914306640624,-0.3343342459410429,1.0432967542886733,0.24999422179898245
1740113659903953700,8.18995361328125,-0.2498217147762887,1.1816180142641066,0.27549380657346917
1740113659913992700,8.19999267578125,-0.07168749985052272,1.382728615629673,0.2763908102121204
1740113659924031500,8.210031494140624,0.06827391028106213,1.6411083336591719,0.3026217232021503
1740113659934070800,8.22007080078125,0.055918907631374894,1.7686773134738205,0.2685561345310882
1740113659944110600,8.230110595703126,0.10867958869384602,1.7648504486620424,0.1262948408261407
1740113659954149600,8.240149658203125,0.3093780838608742,1.7837521330088375,-0.037561518195155075
1740113659964189000,8.25018896484375,0.5313701817462221,1.7675737361460924,-0.13277316999477334
1740113659974227700,8.260227783203124,0.6804869399696588,1.6800298927277326,-0.23329971037395297
1740113659984266800,8.270266845703125,0.8395300854563713,1.5385826096862554,-0.38871129442527885
1740113659994305800,8.280305908203125,0.86349782102108,1.302861298188567,-0.6037923342805356
1740113660004344600,8.290344482421874,0.5952665710628032,1.0543407108724117,-0.815862282686308
1740113660014383900,8.3003837890625,0.29074705141531304,0.8622247323453426,-0.9569828179914504
1740113660024422700,8.310422607421875,0.14466977048562837,0.7691156560152769,-1.0463462780524044
1740113660034461700,8.320461669921874,0.03608196999477222,0.6332599093705416,-1.1938684970933944
1740113660044500700,8.330500732421875,0.07573416315913199,0.4446709359258413,-1.132442041554302
1740113660054539800,8.340539794921876,0.08186640057014301,0.04367722916305065,-0.8651286370933056
1740113660064578800,8.350578857421874,0.08134032173627055,-0.3694125735849142,-0.5292441660355777
1740113660074617600,8.36061767578125,0.11470073041319846,-0.7023889751762151,-0.12668045174339784
1740113660084656600,8.37065673828125,-0.005942852318752557,-0.9980722956836223,0.3929771717088297
1740113660094695700,8.38069580078125,-0.08320786004066467,-1.3073475036919115,1.0126006603170186
1740113660104735700,8.39073583984375,-0.12487784103453159,-1.5775813256442546,1.5454327678419648
1740113660114774800,8.40077490234375,0.08472118721306324,-1.5516268001765012,2.091030468111485
1740113660124813800,8.410813720703125,1.011174353840947,-1.174700197699666,1.9528407255612312
1740113660134852600,8.4208525390625,1.5919383522987365,-1.0071867455095052,0.42544728961568323
1740113660144891600,8.4308916015625,0.6131307290554047,-1.476210032403469,-1.1441150898218155
1740113660154931000,8.440930908203125,-0.6742828246325254,-1.9278449621230362,-2.168200509292632
1740113660164969700,8.4509697265625,-1.839580403214693,-2.215213458749652,-2.1658175596788523
1740113660175008800,8.4610087890625,-2.02468737976253,-2.3648791195601224,-0.993676252681762
1740113660185047600,8.471047607421875,-0.8970271656572818,-1.9940052412509917,0.5240483144255355
1740113660195086600,8.481086669921876,0.6406336530089378,-1.302182668274641,1.3628952033907173
1740113660205126000,8.4911259765625,1.8174200093328952,-0.893403129941225,0.8179141737148166
1740113660215164700,8.50116455078125,1.7105600555479525,-0.735381144195795,-0.4802395313046872
1740113660225203700,8.51120361328125,0.6180564950197934,-0.7681769138604402,-1.295376056999713
1740113660235242800,8.52124267578125,-0.31239772394299503,-0.8483709790378808,-1.284189038683474
1740113660245281800,8.53128173828125,-0.8339408871471882,-0.6538941165983676,-0.459167224920541
1740113660255320800,8.54132080078125,-1.1119085182219743,-0.24161329214572905,0.6745802001439034
1740113660265361000,8.55136083984375,-1.0954518889397382,0.2891319991677999,1.4609781226105987
1740113660275399700,8.561399658203126,-0.9185743960767984,0.9461983160614966,2.007677646642178
1740113660285438700,8.571438720703124,-0.7080038924485444,1.4410668228298424,2.15685640071854
1740113660295477500,8.5814775390625,-0.5769874025285243,1.543051864054799,1.8062061030097305
1740113660305516800,8.591516845703126,-0.511248563683033,1.3665093022346495,1.2721698073267935
1740113660315555800,8.601555908203125,-0.33139877701103687,1.1335305674433707,0.8665718216389418
1740113660325594600,8.6115947265625,-0.07516600788235664,0.9421849887669086,0.6450049268957228
1740113660335633700,8.621633544921876,0.15924363649487494,0.8191600821226834,0.37236378807332365
1740113660345673000,8.6316728515625,0.382113649725914,0.7897820119470358,0.16445914265345782
1740113660355711700,8.641711669921875,0.5544564217686653,0.7836059536606073,0.0844060385829769
1740113660365750800,8.651750732421876,0.7173942366063595,0.8021551713079214,-0.030823939868714657
1740113660375789600,8.66178955078125,0.7088181314408779,0.9168155697107314,-0.15163829432399942
1740113660385828600,8.67182861328125,0.5182189872175454,1.0753519347190856,-0.18792241756105793
1740113660395868000,8.681867919921874,0.24166414555013177,1.1779273430526256,-0.12217406196855007
1740113660405906700,8.69190673828125,-0.011117601775261573,1.2668664402216672,-0.06830914142464753
1740113660415945700,8.70194580078125,-0.1647784742683172,1.4018646932542322,0.049665176432277074
1740113660425985800,8.71198583984375,-0.20766776792407035,1.524116277438402,0.1722064688446
1740113660436024600,8.722024658203125,-0.17811784831285477,1.560459510451555,0.19572551079373807
1740113660446063900,8.73206396484375,-0.21031272947490215,1.5107581986933947,0.022531241054763083
1740113660456103000,8.74210302734375,-0.3689209906756878,1.3968699537068605,-0.14669268201482483
1740113660466141700,8.7521416015625,-0.492037082734704,1.2575631898254156,-0.24221330386549234
1740113660476180700,8.7621806640625,-0.538563271588087,1.1292121197223663,-0.44084290207028387
1740113660486219500,8.772219482421875,-0.6370744992226361,1.033202061253786,-0.5641334373807534
1740113660496258800,8.7822587890625,-0.5737152489900589,0.8848083200752734,-0.4622345035366714
1740113660506297900,8.7922978515625,-0.32174364443719383,0.6054302376806736,-0.31074922608360644
1740113660516336600,8.802336669921875,-0.08603577694296836,0.2305044536322355,-0.2963745907071978
1740113660526375700,8.812375732421875,0.06882511442303657,-0.17473405109345913,-0.3451681765032932
1740113660536414700,8.822414794921874,0.046296467184158974,-0.35708792954087254,-0.4239977483944967
1740113660546453800,8.832453857421875,0.041416878449055367,-0.461398783364892,-0.40870808053240176
1740113660556492800,8.842492919921876,0.09886019633584656,-0.604701923406124,-0.28483649393096566
1740113660566531600,8.852531494140624,0.35213936722278594,-0.8187234442710876,-0.039397286821529265
1740113660576571600,8.862571533203125,0.600500380063057,-1.158922198331356,0.09716220591207966
1740113660586610700,8.872610595703126,0.6252198107779026,-1.5074807844579219,-0.06426304893819615
1740113660596649700,8.882649658203125,0.543384408134222,-1.6462977189958095,-0.06420048682969064
1740113660606688800,8.892688720703125,0.7219768882215023,-1.5826730958253143,0.13502563422983513
1740113660616727800,8.902727783203124,1.3372399531304835,-1.324768009570241,-0.6303256094843149
1740113660626766600,8.9127666015625,1.0058452677726746,-1.1645341929942368,-1.928888772087544
1740113660636806000,8.922805908203125,-0.13931259996718726,-1.3886001380115747,-1.9655216356970369
1740113660646844700,8.9328447265625,-0.6204150408446788,-1.6632465157091616,-1.0234872343819588
1740113660656883700,8.9428837890625,-0.6544447362184524,-1.8390625168204306,0.05523631392838433
1740113660666922800,8.9529228515625,-0.09971358916163443,-1.6985083832263945,0.7822089463442563
1740113660676961500,8.96296142578125,0.5848866313457489,-1.1839660386949777,1.3218689271278679
1740113660687000800,8.973000732421875,1.129039101243019,-0.7111690784811974,1.008319987323135
1740113660697040000,8.983039794921876,1.0279624070346354,-0.44930151833593845,-0.04655450163241476
1740113660707078700,8.99307861328125,0.4137450517863035,-0.3695423374444246,-0.7428994839366525
1740113660717117700,9.00311767578125,-0.08676056581987067,-0.4436030144333839,-0.8254631277896464
1740113660727157800,9.01315771484375,-0.39852001012563704,-0.43411154798865315,-0.1456248518539127
1740113660737196800,9.02319677734375,-0.4002595472693443,-0.17915186753571033,0.8136789472978562
1740113660747235800,9.03323583984375,-0.03245440888106823,0.06155716924667358,1.4604564368240534
1740113660757274600,9.043274658203124,0.3797328920692205,0.18918927742540836,1.6589603628225624
1740113660767313700,9.053313720703125,0.6143786832898854,0.11033844355046749,1.496672244065255
1740113660777352700,9.063352783203126,0.6234428642332553,-0.1292564945101738,0.9519522034130989
1740113660787391700,9.073391845703124,0.36424426756892353,-0.35493104376792906,0.31171186057068406
1740113660797430800,9.0834306640625,0.1055272438764572,-0.46707624447941776,-0.07876670838859863
1740113660807469800,9.0934697265625,-0.08549799853814766,-0.41653965094089507,-0.11603856402137316
1740113660817508600,9.103508544921874,-0.16194820101214571,-0.2835837173908949,0.12439867921546101
1740113660827548000,9.1135478515625,-0.22388530948711557,-0.1756459052413702,0.32511107504367825
1740113660837586700,9.123586669921876,-0.42176469211280343,-0.04225158027410507,0.3203782743681222
1740113660847625700,9.133625732421875,-0.5133996042370796,0.24772914467751977,0.42436932165324687
1740113660857664800,9.143664794921875,-0.4141109624892473,0.6626479164183139,0.5966465176464989
1740113660867703600,9.15370361328125,-0.37719372898042197,1.0505155996263027,0.7253444649584591
1740113660877742800,9.163742919921875,-0.4357037856161594,1.3656670061916112,0.7266254446797072
1740113660887783000,9.173782958984376,-0.31997488119900225,1.5795114169239997,0.6600337153319269
1740113660897821700,9.18382177734375,-0.20511925248503685,1.6374077255755661,0.5412199601093307
1740113660907860700,9.19386083984375,-0.15071078594923018,1.6274305214405058,0.3972781933709979
1740113660917899800,9.203899658203126,-0.09223170897364616,1.631212378066778,0.23115020418986676
1740113660927938800,9.213938720703124,-0.021031682112812995,1.668775508263707,0.04797907280912622
1740113660937978400,9.223978271484375,0.07741817072331905,1.676666553774476,-0.02863435740256682
1740113660948017400,9.234017333984376,0.11792495315670966,1.557121305939555,-0.11903065850944257
1740113660958056200,9.24405615234375,0.2801882297337055,1.3234171794831753,-0.3877786166850477
1740113660968095200,9.25409521484375,0.47797874676585195,1.0467781666636466,-0.6065994275905191
1740113660978134300,9.26413427734375,0.5147048416167498,0.7218436172306537,-0.6894841931566595
1740113660988173300,9.27417333984375,0.43690322453379626,0.4504050956636667,-0.7936288235682993
1740113660998212400,9.28421240234375,0.4121194964110851,0.24881869347989558,-0.8741152958210557
1740113661008251400,9.29425146484375,0.45058220579624175,0.018808745366334916,-0.8777999756831675
1740113661018290200,9.304290283203125,0.6675123075842857,-0.3000660656362772,-0.6119349433995783
1740113661028329500,9.31432958984375,0.6890741510510444,-0.5650654940664768,-0.16015181911466642
1740113661038369500,9.32436962890625,0.5257908837765455,-0.7542156085252761,0.39095622380785644
1740113661048408300,9.334408203125,0.25193010349869727,-0.8132248468548059,0.8496300391882657
1740113661058447400,9.344447265625,-0.07800561522245407,-0.8688806831032038,1.1902105591077357
1740113661068486100,9.354486083984375,-0.16030512824654577,-0.9802332721322774,1.5035074969127773
1740113661078525200,9.364525146484375,0.5769102456390858,-0.9267278919160366,1.3068014141164719
1740113661088564500,9.374564453125,1.2111632577002047,-0.9220143073976039,0.19332332675652578
1740113661098603300,9.384603271484375,0.7489514043867588,-1.3770388795554638,-0.8243149076025933
1740113661108642300,9.394642333984375,-0.09087971897595562,-1.829042642587423,-1.5113015117898583
1740113661118681300,9.404681396484374,-1.0285556967526674,-2.1917039883464575,-1.3429038241110742
1740113661128720400,9.414720458984375,-1.557274450674653,-2.4900761095464228,-0.2607468855522573
1740113661138759400,9.424759521484376,-1.169610765606165,-2.173114438688755,1.2106874568819999
1740113661148798200,9.434798095703124,-0.10853169552260078,-1.4256892209559677,2.161455857338011
1740113661158837200,9.444837158203125,0.8183399979114532,-0.7899690589517354,1.922717389976233
1740113661168876300,9.454876220703126,0.9461854565799236,-0.5760363854140043,0.5755808236662298
1740113661178915300,9.464915283203124,0.20185177512168884,-0.8117267172515392,-0.7378662390097975
1740113661188954400,9.474954345703125,-0.41069209395647044,-1.0850421386063098,-1.3829361209005118
1740113661198994400,9.484994384765624,-0.8452513857126236,-1.192462648883462,-1.467897838871181
1740113661209033200,9.495033203125,-1.2086486445307731,-1.1284949113637208,-0.8328926932685077
1740113661219072300,9.505072265625,-0.9957388842999935,-0.6878828954398631,0.3489209166329354
1740113661229111600,9.515111572265624,-0.6704992144405841,-0.026314006429910657,1.4336907411038875
1740113661239150300,9.525150390625,-0.5984229892671108,0.5532575673729181,1.914794780283421
1740113661249189400,9.535189453125,-0.6434229914665222,0.9322843569993973,1.9490625221967697
1740113661259228200,9.545228271484374,-0.8498200088024139,1.2110977912485599,1.7932457914106548
1740113661269267200,9.55526708984375,-1.0955471660077571,1.3669529543489216,1.5826086522869764
1740113661279306500,9.565306396484376,-1.1409423050045966,1.465557120963931,1.4287607373557984
1740113661289345300,9.57534521484375,-0.9882266089737415,1.4424305123984813,1.2515798776321112
1740113661299384300,9.58538427734375,-0.6405296081125735,1.2469687305748463,0.9185019153624773
1740113661309423000,9.595423095703126,-0.2133165874660015,0.967013140553236,0.5246462803186849
1740113661319462400,9.60546240234375,0.18423077823519707,0.7908908499717712,0.160917597589083
1740113661329501400,9.61550146484375,0.554048425489664,0.7986591458857059,-0.21231531973527742
1740113661339540200,9.625540283203126,0.703715255343914,0.9130044869899749,-0.5197489001985639
1740113661349580300,9.635580322265625,0.7140764903604984,1.078506599357724,-0.5753017144639044
1740113661359619300,9.645619384765626,0.7442600317001342,1.1601222217708826,-0.4905370534352958
1740113661369658000,9.655658203125,0.6635878276169299,1.150697390821576,-0.3998966687737033
1740113661379697400,9.665697509765625,0.6071697748243808,1.0918208389610051,-0.28253166932100426
1740113661389736400,9.675736328125,0.5442682052314282,1.1042097804129123,-0.12789499689862133
1740113661399775200,9.685775146484374,0.3009937018752098,1.2059241880029439,-0.09308273631241172
1740113661409814300,9.695814208984375,0.024648119044303893,1.3090993157953024,-0.1072403770704288
1740113661419853300,9.705853271484376,-0.3547439967632294,1.3887585434436798,-0.16263751671686769
1740113661429892400,9.715892333984375,-0.5991840367674828,1.4194862746626138,-0.20908033813573418
1740113661439931400,9.725931396484375,-0.5874105968654155,1.3320008834332226,-0.2567261786688119
1740113661449970200,9.73597021484375,-0.4595698143720627,1.0128542697519063,-0.4797242021936923
1740113661460009200,9.74600927734375,-0.36424247747063637,0.45544133626520633,-0.6489890280958265
1740113661470048500,9.756048583984375,-0.3311047625005245,0.10970073016881943,-0.7193585224166512
1740113661480087300,9.76608740234375,-0.33987025275826455,0.06809446206092834,-0.6869885038834065
1740113661490126300,9.776126220703125,-0.31993688727617264,-0.03671849606633186,-0.4741174682278186
1740113661500166400,9.78616650390625,-0.11768064127312973,-0.3057996408522129,-0.05981789696444757
1740113661510205200,9.796205078125,0.2810930696189403,-0.6072095223128795,0.5610055146185681
1740113661520244500,9.806244384765625,0.5914356145977974,-1.0137544334620237,1.0967693282138555
1740113661530283300,9.816283203125,0.8723346229493617,-1.4431792849391698,1.505994783683866
1740113661540322300,9.826322265625,0.8730699514865875,-1.7062275793015955,1.5779055891625582
1740113661550361300,9.836361328125,0.5319862312853336,-1.7661328896880149,1.2993293246701358
1740113661560400100,9.846400146484376,0.08782792105674743,-1.6077221968859434,0.906170110925287
1740113661570439400,9.856439453125,0.18072249611960722,-1.341058634635806,0.5367067935338243
1740113661580478500,9.866478515625,1.046831942677498,-1.1212076769649981,-0.30852333019506184
1740113661590517200,9.876517333984374,0.6905716961324214,-1.300849373844266,-1.6782963469333945
1740113661600556300,9.886556396484375,-0.202472537368536,-1.843175797358155,-2.2019877742126583
1740113661610595300,9.89659521484375,-0.47952422264218325,-2.1991338460862635,-1.684368798714876
1740113661620634400,9.90663427734375,-0.5667629456341267,-2.383914074897766,-0.5775945015762001
1740113661630673400,9.91667333984375,-0.009341833407548256,-2.5016414596557617,0.24002388579612596
1740113661640712200,9.926712158203125,0.567152237212658,-2.3773370345950124,0.688246760316193
1740113661650751200,9.936751220703124,0.7928408149957656,-2.139803120717406,0.7621948437761515
1740113661660791300,9.946791259765625,0.8668892170250415,-1.7911165242969989,0.43010289686918257
1740113661670830300,9.956830322265626,0.7750982375562191,-1.3108277470231056,0.022607114735990762
1740113661680869400,9.966869384765625,0.4907990653723478,-0.8617121066480875,0.03146779986335896
1740113661690908400,9.976908447265625,0.35660511445999143,-0.5222697239130735,0.5340259204193949
1740113661700947200,9.986947265625,0.42777182357311244,-0.3227408387809992,1.3482641821004449
1740113661710986500,9.996986572265625,0.6020955403000116,-0.3448065401166677,1.9088588143631815
1740113661721025300,10.007025390625,0.8101578604996204,-0.3571118949383497,1.925992758385092
1740113661731064300,10.017064208984374,1.0209259325265885,-0.22722470130920408,1.6471981749668716
1740113661741103400,10.027103271484375,0.9635919339329003,-0.012729717713594435,1.2587962387517093
1740113661751142100,10.03714208984375,0.6817056681096554,0.26996903353631496,0.7009276704519987
1740113661761181400,10.047181396484374,0.3515273728042841,0.48403497806489465,0.18489698705896734
1740113661771220200,10.05722021484375,-0.10178805734813212,0.6620254006057977,-0.1253631494665984
1740113661781259300,10.06725927734375,-0.6388765802085399,0.8270312538892031,-0.23048585852961986
1740113661791298300,10.07729833984375,-0.936298268815875,1.0498106662273405,-0.10360353667172603
1740113661801338400,10.08733837890625,-1.1271616169333458,1.3310633103221654,0.2366118671292439
1740113661811377400,10.09737744140625,-1.2157885794132948,1.68348500161767,0.594039951877296
1740113661821416400,10.10741650390625,-1.2548697129577397,1.9438111775398252,0.8666757934700697
1740113661831455200,10.117455322265625,-1.2095558225035667,2.0506495040148494,0.9348369640916585
1740113661841494300,10.127494384765624,-1.1776251452356576,1.9389508780270814,0.8299551785118877
1740113661851533300,10.137533203125,-1.0070768553942442,1.7823329138606785,0.6012297172509133
1740113661861572400,10.147572265625,-0.5991296762317418,1.7345909194767475,0.26375445160409433
1740113661871611400,10.157611328125,-0.28725802198946476,1.683994120183587,-0.07393442939394153
1740113661881650200,10.167650146484375,0.08463292440772056,1.689109855762124,-0.17571707078143953
1740113661891689200,10.177689208984376,0.41379941232204437,1.6479074922800063,-0.07619978964319452
1740113661901728500,10.187728515625,0.6435270363628864,1.5234469998747109,-0.024814214592520145
1740113661911767300,10.197767333984375,0.8206032666683196,1.3011042253881693,-0.11332672037994489
1740113661921806300,10.207806396484376,0.9646680387318134,1.0783306582689285,-0.22802571549378334
1740113661931845400,10.217845458984375,1.0488415289342403,0.8890396740347146,-0.2490571784108877
1740113661941884400,10.227884521484375,0.8843442096948623,0.8405781332045793,-0.15831276711924
1740113661951924500,10.237924560546874,0.5867857429653406,0.8878694612115621,-0.23266875552665442
1740113661961963500,10.247963623046875,0.24084464586079118,0.8801543567895889,-0.5132973129063845
1740113661972002600,10.25800244140625,-0.05964989258693531,0.7297130354315042,-0.8047576088912785
1740113661982041600,10.26804150390625,-0.1197270341426134,0.4279653003185987,-0.7967356304772197
1740113661992080400,10.278080322265625,-0.05849425627840683,-0.022495909446477887,-0.5232489076761528
1740113662002119400,10.288119384765626,-0.151997884884011,-0.40291210760474205,-0.23582729262281207
1740113662012158500,10.298158447265624,-0.24785832401514052,-0.6945119581907987,0.16245306352805344
1740113662022197500,10.308197509765625,-0.43481472782194613,-0.8706476927757263,0.779295543115586
1740113662032236500,10.318236572265626,-0.5996779577642679,-0.9603747254520654,1.5349262791357934
1740113662042275300,10.328275390625,-0.7732850506544112,-1.071734913265705,2.207410091522336
1740113662052314600,10.338314697265625,-0.40581776591837404,-1.0204816958904266,2.682842660936713
1740113662062353400,10.348353515625,0.45369069320559496,-0.7966723559826612,2.03624191621691
1740113662072392400,10.358392333984375,0.3706563996335491,-0.9827285960793495,0.5450130322493613
1740113662082431500,10.368431396484375,-0.21885376332700252,-1.5785656605064868,-0.7460748260371387
1740113662092470500,10.378470458984374,-0.7940256408661603,-2.0406869129270313,-1.6225015406057237
1740113662102510300,10.38851025390625,-1.2754285168617963,-2.4102099611490964,-1.5996870667293668
1740113662112549600,10.398549560546876,-1.3116221122711895,-2.510322194239497,-0.5496630865449086
1740113662122588400,10.40858837890625,-0.6221206757187843,-2.1622698040693997,1.0561803473897278
1740113662132627500,10.41862744140625,0.43224341602921484,-1.5671312433004378,1.8898085153259336
1740113662142666500,10.42866650390625,1.1465455318391322,-1.0475912366122007,1.6381331172406672
1740113662152705500,10.43870556640625,1.3512503583043813,-0.8912187716394663,0.4715712908763438
1740113662162744600,10.44874462890625,1.1797148109912872,-1.0389490804731845,-0.6131511873215436
1740113662172783400,10.458783447265626,0.9451765717983245,-1.1265800176531076,-1.0282171124480664
1740113662182822400,10.468822509765625,0.47782501750886436,-1.069997129687667,-0.8705375834647565
1740113662192861400,10.478861328125,0.10219720440460368,-0.8010258750170469,-0.15820895968489349
1740113662202900500,10.488900390625,0.014373402400547637,-0.3487649223536253,0.7402269767917692
1740113662212939500,10.498939453125,-0.05503504660208709,0.1881803926438093,1.524670404189825
1740113662222978600,10.508978515625,-0.06202946293354034,0.6512357110440731,1.968555596565455
1740113662233017300,10.519017333984374,-0.11509994973069987,0.9258090235054492,1.9583293861053883
1740113662243056600,10.529056640625,-0.22383915052413939,0.9391974973887205,1.662293891159445
1740113662253096700,10.5390966796875,-0.34725798838939514,0.895098243421316,1.304847503569722
1740113662263135500,10.549135498046875,-0.4432067085921764,0.9971230321347713,1.0069494296222925
1740113662273174500,10.559174560546875,-0.5549041655361652,1.136861173170805,0.7033642499491572
1740113662283213300,10.56921337890625,-0.5063946573784575,1.0583879404366017,0.39655218065138903
1740113662293252400,10.57925244140625,-0.2148544645577669,0.932579540553689,0.23741660764086991
1740113662303291600,10.589291748046875,0.10750934847122989,0.8265081067979335,0.17509587014317513
1740113662313330400,10.599330322265626,0.3207920428007841,0.7258879241853952,0.03468691717348993
1740113662323369500,10.609369384765625,0.5500777682930231,0.7285100893825293,0.021270386239513755
1740113662333408500,10.619408447265625,0.8338076161563396,0.7979951290190219,0.1997357328157872
1740113662343447600,10.629447509765624,0.8671838160574435,0.9173270263642073,0.20418968001734464
1740113662353486600,10.639486572265625,0.7516583252578973,1.0321265409767628,0.11451960169263184
1740113662363525400,10.649525390625,0.5744476549178361,1.0789636954754591,0.04142576044183224
1740113662373564400,10.659564453125,0.5454319883137941,1.1260083552449942,0.17635050984676925
1740113662383603500,10.669603515625,0.6241209096252918,1.133142444908619,0.3192798116069287
1740113662393642500,10.679642578125,0.6159785197019577,1.078573819375038,0.28539157053045927
1740113662403682600,10.6896826171875,0.44030748001933095,1.0516752910554408,0.14376856559589504
1740113662413721600,10.6997216796875,0.29208500375449653,1.0757459024727345,0.08823266593273729
1740113662423760400,10.709760498046874,0.22858605279028416,1.0434504835456608,0.03903546777181327
1740113662433799400,10.71979931640625,0.36467268558144567,0.8757616747885942,-0.042540809011645614
1740113662443838700,10.729838623046875,0.6215653799235821,0.619491496258974,0.08160174001827836
1740113662453877500,10.73987744140625,0.7905997580707073,0.2781926720023155,0.37076778758615253
1740113662463916500,10.74991650390625,0.8615829273104667,0.048559740507602686,0.5299509991306811
1740113662473955300,10.759955322265625,0.9531833526432514,0.07371464003026484,0.7135416528314351
1740113662483994400,10.769994384765624,0.9490624733209609,0.08764438118338584,0.8431240182951092
1740113662494033700,10.78003369140625,0.863126649621129,-0.02168985376060009,0.8440709437564015
1740113662504072400,10.790072509765626,0.899850406384468,-0.1446674141317606,0.7600346700675785
1740113662514111500,10.800111572265624,0.8896446541905403,-0.23891747719049453,0.631398280217126
1740113662524150500,10.810150634765625,0.7808943566143512,-0.3524135079890489,0.6928039121638984
1740113662534189600,10.820189453125,0.7299030050456523,-0.3940525093227625,0.9370710798192768
1740113662544229600,10.830229736328125,1.2359142525970934,-0.3464274193167686,1.1510803987897933
1740113662554268700,10.8402685546875,2.0983862377017735,-0.3723135557234287,0.8505586983405053
1740113662564307500,10.850307373046874,2.110955796417594,-0.6293494579285382,0.17965294892564415
1740113662574346500,10.860346435546875,1.6676000347435473,-0.8890367514252662,-0.34522257357165215
1740113662584385300,10.87038525390625,1.4288473927259444,-1.095629583594203,-0.6610195845641196
1740113662594424600,10.880424560546874,1.0500602570742368,-1.2279080562740563,-0.5997877748142928
1740113662604463600,10.890463623046875,0.9496768058270215,-1.3215876259684562,-0.2010954037964344
1740113662614502400,10.90050244140625,1.1554928084045648,-1.378217275685072,0.2414206191178411
1740113662624541400,10.91054150390625,1.4109727133393286,-1.412414144319296,0.3564163138896227
1740113662634580500,10.92058056640625,1.9111942715734243,-1.3369681504517792,0.20467888830639422
1740113662644619500,10.93061962890625,2.25385970800817,-1.1451403412163257,-0.051195788099616765
1740113662654658600,10.940658447265625,2.33319686409533,-1.0185229630380868,-0.2694936711095273
1740113662664697300,10.950697265625,1.9641233132064342,-1.0510019218385218,-0.3013604162957519
1740113662674736400,10.960736328125,1.5900672977298498,-1.121780508416891,0.05437748687565326
1740113662684775700,10.970775634765625,1.2817583044052123,-1.0685901854991913,0.8689091785453259
1740113662694814500,10.980814453125,1.165308099976182,-0.9804203191369771,1.6251706136845052
1740113662704854500,10.9908544921875,1.1420879679083824,-0.7019727955907583,2.1163941880792376
1740113662714893600,11.0008935546875,1.1008055249273776,-0.333720497956872,2.2898273857071993
1740113662724932400,11.010932373046876,1.0891665250599383,-0.03517769636511803,2.152384662131965
1740113662734971600,11.0209716796875,0.94531568800807,0.11839140162467957,1.745748273307085
1740113662745010400,11.031010498046875,0.8718675899595022,0.195243755158782,1.3179375790283083
1740113662755049500,11.041049560546876,0.9012550124853849,0.31935236538648604,1.0598409887891262
1740113662765088500,11.051088623046875,0.9539689500629901,0.4815490064680576,0.8453931322708725
1740113662775127300,11.061127197265625,1.0246762249708175,0.5804191305428743,0.7001017410218715
1740113662785166600,11.07116650390625,1.1132751304000617,0.5821282725483179,0.6303250980276615
1740113662795205600,11.08120556640625,1.2079577396571635,0.5894979245334864,0.6955243501037359
1740113662805244400,11.091244384765625,1.3656237515717744,0.6441238332122564,0.7397690038911998
1740113662815283500,11.101283447265626,1.5333581530362366,0.6685048257529735,0.7844571636624634
1740113662825322500,11.111322509765625,1.5785656605064868,0.656838353356719,0.885988908161968
1740113662835362600,11.121362548828126,1.6211872431367635,0.796950588402152,0.9092253337774425
1740113662845401600,11.131401611328124,1.6202806496858595,1.0265332510143519,0.7628567417509854
1740113662855440400,11.1414404296875,1.503569748494029,1.138050675216317,0.571150293872878
1740113662865479400,11.1514794921875,1.3561246863424776,1.115810786357522,0.4118635854212567
1740113662875518500,11.1615185546875,1.207593582519889,1.0336170717954636,0.4061817769251764
1740113662885557500,11.1715576171875,0.9172457047563045,0.9110276339590548,0.4674646958077326
1740113662895596500,11.181596435546876,0.7630565021067858,0.7664286088883876,0.7065688181441276
1740113662905635600,11.191635498046875,0.7005740347087382,0.6088993750959635,0.8697830387704074
1740113662915674400,11.20167431640625,0.6572586976606398,0.5208382298052311,0.9511223284602165
1740113662925713700,11.211713623046874,0.5735954950679093,0.4172650426059961,0.9525736963123083
1740113662935752200,11.221752197265625,0.4312953580567613,0.3367027286380529,0.8907659863706677
1740113662945791200,11.231791259765625,0.2749878115464002,0.23911563011109827,0.8731186129339039
1740113662955830300,11.241830322265624,0.16527940952777861,0.13224690849781034,0.8926485121816397
1740113662965869300,11.251869384765625,0.234086440304853,-0.011643091520667075,1.0239695380061864
1740113662975908400,11.261908447265625,0.37177513799779116,-0.3143342449635267,1.1709302507068962
1740113662985948400,11.271948486328125,0.4684246634136885,-0.6429167955100537,1.2497205135010183
1740113662995987200,11.2819873046875,0.4532400268286466,-0.7902081284046173,1.3357866855822502
1740113663006026200,11.292026123046876,0.4179711450487375,-0.8192471758842468,1.5662557756401598
1740113663016065300,11.302065185546875,0.4534627662012353,-0.7753951746761798,1.7766311950877307
1740113663026104300,11.312104248046875,0.854109230428934,-0.6863298207789659,1.7680507060080766
1740113663036143400,11.322143310546876,1.679206885907054,-0.6489595828056335,1.0721923016443848
1740113663046182100,11.33218212890625,2.1111481041193008,-0.7919371441543102,-0.18187931973822413
1740113663056221200,11.34222119140625,1.8070009066492319,-1.129119180741906,-1.0667358628693968
1740113663066260200,11.35226025390625,1.1933546292871235,-1.4082780674278734,-1.189118599152565
1740113663076299300,11.36229931640625,0.23923198649976402,-1.6636539274662732,-0.5631561533138155
1740113663086338300,11.37233837890625,-0.16305771489031612,-1.6675222933322191,0.4593133919255808
1740113663096377000,11.382377197265624,0.16395020675063132,-0.9299830943197012,1.7239254408165812
1740113663106416000,11.392416015625,0.7814501638662069,-0.12735913645625113,2.608887490148842
1740113663116455400,11.402455322265626,1.3497463834822176,0.12281506328582763,2.4061579092793166
1740113663126494200,11.412494140625,1.7953046236366033,-0.12075287005901336,1.0547089596629142
1740113663136534300,11.4225341796875,1.8835323576658962,-0.4765589430958032,-0.2789650446143001
1740113663146573300,11.4325732421875,1.6821540452748536,-0.8146990110605955,-0.9502663692180067
1740113663156612000,11.442612060546875,1.471293618789315,-0.8695803558051586,-0.7971930188558995
1740113663166651100,11.452651123046875,1.2836580005466938,-0.6865361570060253,0.21008944211304187
1740113663176690400,11.4626904296875,0.9678502489645033,-0.42401217877864833,1.390337629328668
1740113663186729200,11.472729248046875,0.8339794655919075,-0.12582652006149292,2.3209277496308087
1740113663196768300,11.482768310546875,0.8412579321622848,0.21836977920234202,2.910960511693358
1740113663206807000,11.49280712890625,0.9218974030196666,0.5246610029637814,2.9820144080817697
1740113663216846300,11.502846435546875,1.0795710137188435,0.501731378275156,2.4492650834694505
1740113663226885400,11.512885498046876,1.1116133346676826,0.28133623072504993,1.668007446500659
1740113663236924200,11.522924072265624,1.1508680712133645,0.17799568323791026,1.055831753147766
1740113663246963200,11.532963134765625,1.2273562676101921,0.16615385427474974,0.7112751692041754
1740113663257002200,11.543002197265626,1.2978531146377323,0.05159048650562763,0.5530697897158563
1740113663267041300,11.553041259765624,1.3887240566521881,-0.07235562663674354,0.42882874874752014
1740113663277080300,11.563080322265625,1.5201988117337226,-0.13784721272289752,0.24023893505260346
1740113663287120400,11.573120361328124,1.5813094062566757,-0.12685644763112067,0.1602524847438559
1740113663297159200,11.5831591796875,1.6738152559965849,-0.06190729785859585,0.22003493593558668
1740113663307198200,11.5931982421875,1.777359801623225,0.02102174524068832,0.43991501010302453
1740113663317237200,11.6032373046875,1.7981483226299284,0.059628247010707854,0.6414784332700073
1740113663327276300,11.6132763671875,1.7210656674712896,0.16199381198585033,0.7626112425573169
1740113663337315300,11.6233154296875,1.5251958893686532,0.3783662798911333,0.7683717788454145
1740113663347354000,11.63335400390625,1.3478741598695516,0.5852472813516855,0.7846249945100396
1740113663357393200,11.64339306640625,1.1986685177862644,0.7263672321349381,0.9007261663056909
1740113663367432400,11.653432373046876,1.1455600279331206,0.8558458449631929,1.0601582380447536
1740113663377471200,11.66347119140625,1.1319400833815336,0.9823843126863241,1.0648387240111827
1740113663387510300,11.67351025390625,1.0722510460942982,1.0250421356737613,0.9928870020002126
1740113663397549000,11.683549072265626,1.1260247218579054,1.0195803631365299,1.0235640259452163
1740113663407588400,11.69358837890625,1.2471060932189226,0.9185440009385347,1.073261538311094
1740113663417627400,11.70362744140625,1.2962754900574682,0.719856827327609,1.1219853833392261
1740113663427666200,11.713666259765626,1.3629033866971731,0.48814299790561194,1.1558299314044416
1740113663437706200,11.723706298828125,1.4079723624795675,0.3001052286028862,1.1470375531397758
1740113663447745300,11.733745361328126,1.445424433517456,0.22364099760353565,1.2082234779212624
1740113663457784000,11.7437841796875,1.373397892704606,0.22723872983455656,1.3261891284145415
1740113663467823400,11.7538232421875,1.2255033332198857,0.19931027394533157,1.4073879867203534
1740113663477862400,11.7638623046875,1.0259183339864015,0.13272913905680178,1.3475455124370752
1740113663487901200,11.773901123046874,0.7794062369484454,0.059715340772271155,1.3088865498274564
1740113663497940200,11.783940185546875,0.6652029346633702,-0.11614040782749652,1.4084734438695012
1740113663507979300,11.793979248046876,0.7015472636550665,-0.2874415618628263,1.5750627669520676
1740113663518018300,11.804018310546875,0.8253986842513084,-0.3022796500325203,1.6549330070026218
1740113663528057300,11.814057373046875,1.0772101298063992,-0.1490630187422037,1.4389904549472032
1740113663538096000,11.82409619140625,1.0944343093950302,0.04281915102899074,0.9171768042385577
1740113663548135200,11.83413525390625,0.6618675066303461,0.04082183973193168,0.204179414351657
1740113663558174200,11.84417431640625,0.13424772692620754,-0.21324410675168037,-0.06414923156648875
1740113663568213200,11.854213134765626,-0.21822540229558943,-0.5718839419096708,0.36538751931991426
1740113663578253300,11.86425341796875,-0.30065928228907285,-0.7476964358896017,1.0494850875347852
1740113663588292000,11.8742919921875,-0.13291560153961182,-0.6985907519370317,1.524068785034865
1740113663598331100,11.8843310546875,0.0030891981869935986,-0.4932961428850889,1.677389168960601
1740113663608370400,11.894370361328125,0.23518720462098716,-0.4297743955671787,1.5709940562084317
1740113663618409200,11.9044091796875,0.6315204452920705,-0.5050765970498323,1.3907755823545158
1740113663628448300,11.9144482421875,1.1488953098356722,-0.4902420160114765,1.3783990619927644
1740113663638487300,11.9244873046875,1.550871597895026,-0.3460270218223333,1.4054212166920304
1740113663648526000,11.934526123046876,1.8565782997667788,-0.2585340318083763,1.3545375632815062
1740113663658565400,11.9445654296875,2.2320663938730956,-0.21092706198096275,1.2264768544271587
1740113663668604200,11.954604248046875,2.70110721642375,-0.10363982269465923,1.0228203679710626
1740113663678643200,11.964643310546874,3.011134119582176,-0.012173252874612808,0.8409472587779164
1740113663688682200,11.97468212890625,3.014849340713024,-0.015602058279514311,0.8420639878481626
1740113663698721300,11.98472119140625,2.5384008722543716,-0.10430033243000507,0.9191162478685379
1740113663708760300,11.99476025390625,1.991759508150816,-0.10629939729273319,0.9221295312751084
1740113663718799400,12.00479931640625,1.6423451819777488,0.1338707103073597,1.1660706818465143
1740113663728839200,12.014839111328126,1.3676269080877304,0.45799277431368823,1.5061869452551007
1740113663738878200,12.024878173828125,1.1827356201171875,0.6624889264643192,1.681971820575744
1740113663748917200,12.034917236328125,1.0041033925414085,0.7097603807270526,1.5854719327636062
1740113663758956300,12.044956298828126,0.7760709550458937,0.6261550458014011,1.3232603814862667
1740113663768995300,12.054995361328125,0.6452900274474174,0.4785591770023107,1.2142042328312992
1740113663779034000,12.0650341796875,0.6866794379342347,0.22642039918899534,1.2481678772315383
1740113663789073200,12.0750732421875,0.7946136698871851,-0.07656009258925914,1.3086426580689847
1740113663799112200,12.0851123046875,0.8931266510874032,-0.28338147281706333,1.3869849578998983
1740113663809151200,12.095151123046875,1.1607301976013928,-0.4013742305129766,1.4754637440808116
1740113663819190300,12.105190185546874,1.3606611607283352,-0.4729693941712379,1.481335412593186
1740113663829229300,12.115229248046875,1.433194628150016,-0.524033226454258,1.4148320191159844
1740113663839268000,12.12526806640625,1.5292133083164692,-0.5739712695777416,1.3626589104168116
1740113663849307400,12.135307373046874,1.5896797597169876,-0.5698018749386072,1.3793066783569752
1740113663859346200,12.14534619140625,1.5169634830743073,-0.5853343751132488,1.2778627582713962
1740113663869385200,12.15538525390625,1.2876292422652245,-0.5167208576142788,0.9948507763538509
1740113663879425300,12.16542529296875,1.1173434758175165,-0.37628129031062124,0.7654410591557621
1740113663889464000,12.175464111328125,1.002877065616846,-0.2948468696832657,0.7539092459898442
1740113663899503000,12.185503173828126,0.8903449114143848,-0.38737434673309323,0.8176979006156325
1740113663909542400,12.19554248046875,0.7811374446552246,-0.4766267476350069,0.9018780397545546
1740113663919581200,12.205581298828125,0.6956915964294225,-0.48967035360336303,1.0252969872176647
1740113663929620200,12.2156201171875,0.6271827083487064,-0.47389878397583957,1.149585922448337
1740113663939659000,12.225658935546875,0.5274229419577866,-0.4574824867039919,1.1869781530577688
1740113663949698000,12.235697998046875,0.5399428163129836,-0.4985930802494287,1.1631352129165082
1740113663959737000,12.245737060546874,0.51525670334585,-0.48252281993627544,1.1147821008969099
1740113663969776000,12.255776123046875,0.469547018507123,-0.4252461044877767,1.1405487756423651
1740113663979815000,12.26581494140625,0.4490279620915651,-0.38996553227007386,1.218016849922016
1740113663989854200,12.275854248046874,0.5933621987462043,-0.4551736252397299,1.3087826510615646
1740113663999893200,12.285893310546875,0.8389227672129869,-0.4673322650671005,1.3338909349635242
1740113664009932000,12.29593212890625,1.1675246069818734,-0.4037275156408548,1.161634818290919
1740113664019971000,12.30597119140625,1.4037293180823325,-0.3156108407706022,0.6188347859159111
1740113664030011100,12.31601123046875,1.6288281132787465,-0.24502865354716777,0.045411473643709906
1740113664040050000,12.3260498046875,1.61953363071084,-0.23234511306285857,-0.3441340111499652
1740113664050089200,12.336089111328125,1.29435124399662,-0.22699498420655725,-0.517009282634221
1740113664060128000,12.3461279296875,0.8451321432471275,-0.17426468001604078,-0.37009956946838646
1740113664070167000,12.3561669921875,0.5788257238715887,-0.18064064478874206,-0.015670524972421117
1740113664080206000,12.3662060546875,0.5518588064908981,-0.181920163205266,0.40047238630242643
1740113664090245000,12.3762451171875,0.6124404087036848,-0.17123276497423648,0.7943106683526188
1740113664100284200,12.3862841796875,0.5881505285125226,-0.2620452547997236,0.9879949191097169
1740113664110323200,12.3963232421875,0.76156356013529,-0.39010523300170896,0.8210735145285725
1740113664120362000,12.406362060546876,0.6976227836877107,-0.5933586916148662,0.5656482989231124
1740113664130401000,12.416401123046874,0.6348644219577312,-0.7807862200647592,0.4065323073958978
1740113664140440000,12.426440185546875,0.5703764599561691,-0.7944336371451616,0.5138777431428432
1740113664150479000,12.43647900390625,0.49427346348464485,-0.7420885328799486,0.7871436993326991
1740113664160518100,12.44651806640625,0.544800120151043,-0.6514724424093962,1.08205274753198
1740113664170558000,12.456557861328125,0.7728495818465948,-0.4653285240292549,1.2935434347450732
1740113664180597000,12.466596923828124,1.0846809040784835,-0.22137889789044857,1.2883539032779634
1740113664190636000,12.476635986328125,1.1093033041596412,0.1693400830954313,1.1230897643845528
1740113664200675000,12.486675048828126,1.0682283664494752,0.5145680634945631,0.9626572834312915
1740113664210714000,12.496714111328124,0.9247539614945649,0.7707914802730083,0.9265314194958656
1740113664220753200,12.506753173828125,0.6321767903089522,0.9725883103370666,0.9877811302285641
