time,seconds_elapsed,z,y,x
1740039582427857200,0.020857177734375,-0.015111665241420269,0.03184371069073677,0.5264408588409424
1740039582437897200,0.030897216796875,0.004440995864570141,0.0259053036570549,0.49484696984291077
1740039582447937300,0.040937255859375,-0.007667864672839642,0.0035709692165255547,0.4631580114364624
1740039582457976300,0.050976318359375,-0.009588509798049927,0.014864174649119377,0.4312090277671814
1740039582468016000,0.06101611328125,0.05051290988922119,-0.08398650586605072,0.4744374752044678
1740039582478055200,0.07105517578125,0.08702394366264343,-0.1674993485212326,0.5102405548095703
1740039582488095200,0.08109521484375,0.10548550635576248,-0.39092177152633667,0.5060237050056458
1740039582498134000,0.091134033203125,0.22544075548648834,-0.8886687159538269,0.5321621298789978
1740039582508174000,0.101174072265625,0.40841618180274963,-1.3991423845291138,0.6640181541442871
1740039582518214100,0.111214111328125,0.5978105068206787,-1.7471368312835693,0.8832583427429199
1740039582528253400,0.12125341796875,0.6748341917991638,-1.9370113611221313,1.1391185522079468
1740039582538293200,0.131293212890625,0.5822044014930725,-1.7565414905548096,1.3396672010421753
1740039582548332300,0.141332275390625,0.38030025362968445,-1.4136320352554321,1.3704913854599
1740039582558372400,0.151372314453125,0.17065638303756714,-1.186400055885315,1.2830132246017456
1740039582568411400,0.161411376953125,0.09931109845638275,-1.2895584106445312,1.167920708656311
1740039582578451200,0.171451171875,0.19594217836856842,-1.610920786857605,1.0858972072601318
1740039582588491300,0.1814912109375,0.37812796235084534,-1.9525949954986572,1.0136044025421143
1740039582598530300,0.1915302734375,0.4661577045917511,-2.1380527019500732,0.897250771522522
1740039582608570400,0.2015703125,0.3673669397830963,-2.080899715423584,0.7018021941184998
1740039582618609200,0.211609130859375,0.16382770240306854,-1.704219102859497,0.4388258457183838
1740039582628649200,0.221649169921875,-0.011231467127799988,-1.4097129106521606,0.20139333605766296
1740039582638688300,0.231688232421875,-0.01679915189743042,-1.5745545625686646,0.1751590371131897
1740039582648728300,0.241728271484375,0.16837044060230255,-1.9842352867126465,0.40694963932037354
1740039582658768100,0.25176806640625,0.36743229627609253,-2.5423011779785156,0.7464636564254761
1740039582668807200,0.26180712890625,0.5167797207832336,-3.122610330581665,1.1242247819900513
1740039582678847200,0.27184716796875,0.5970187783241272,-3.5056374073028564,1.444802165031433
1740039582688886300,0.28188623046875,0.6143910884857178,-3.6823675632476807,1.6335203647613525
1740039582698926300,0.29192626953125,0.4895740747451782,-3.460533857345581,1.709755301475525
1740039582708965400,0.30196533203125,0.16361089050769806,-2.1597185134887695,1.612075924873352
1740039582719005400,0.31200537109375,-0.4106023907661438,-0.9908698797225952,1.4910447597503662
1740039582729045200,0.322045166015625,-0.8707627654075623,-0.00844389945268631,1.233821153640747
1740039582739084300,0.332084228515625,-1.0206670761108398,0.07507926225662231,0.8730930089950562
1740039582749124400,0.342124267578125,-0.9070577025413513,-0.33921805024147034,0.42841407656669617
1740039582759163100,0.3521630859375,-0.729473888874054,-0.6902766227722168,-0.014019864611327648
1740039582769203200,0.362203125,-0.5591572523117065,-1.092677354812622,-0.28206753730773926
1740039582779243300,0.3722431640625,-0.34787625074386597,-1.4608423709869385,-0.2755148410797119
1740039582789282300,0.3822822265625,-0.15968823432922363,-1.627877950668335,0.11257082968950272
1740039582799322400,0.392322265625,-0.061440255492925644,-1.1511366367340088,0.4693599045276642
1740039582809361200,0.402361083984375,0.071690633893013,-1.0462632179260254,0.8714029788970947
1740039582819401200,0.412401123046875,0.08547738939523697,-0.9856283068656921,1.280638337135315
1740039582829440300,0.422440185546875,0.06707467883825302,-0.8000717759132385,1.5310393571853638
1740039582839480000,0.43247998046875,0.11368969827890396,-0.44759243726730347,1.5691810846328735
1740039582849520000,0.44252001953125,0.3809190094470978,0.042522381991147995,1.5753194093704224
1740039582859559400,0.452559326171875,0.6043607592582703,0.477865606546402,1.5767995119094849
1740039582869599200,0.46259912109375,0.7700133919715881,0.514971137046814,1.272402286529541
1740039582879638300,0.47263818359375,1.0694695711135864,0.7225586771965027,0.7615532875061035
1740039582889678300,0.48267822265625,1.2337349653244019,0.8486607074737549,0.24350424110889435
1740039582899717400,0.49271728515625,1.2000477313995361,0.7867785096168518,-0.11492973566055298
1740039582909757200,0.502757080078125,1.3611297607421875,1.3130532503128052,-0.3204014301300049
1740039582919797200,0.51279736328125,1.4448574781417847,2.036306619644165,-0.5722596049308777
1740039582929836300,0.522836181640625,1.6006087064743042,2.245877265930176,-0.8646767735481262
1740039582939876400,0.53287646484375,1.9076021909713745,2.284345865249634,-1.1367439031600952
1740039582949915100,0.5429150390625,2.217844009399414,2.4899091720581055,-1.3238991498947144
1740039582959955200,0.552955078125,2.486490249633789,3.004448890686035,-1.3883585929870605
1740039582969994200,0.562994140625,2.8339827060699463,3.777179718017578,-1.366066813468933
1740039582980034300,0.573034423828125,3.2282004356384277,4.528880596160889,-1.2867999076843262
1740039582990074000,0.58307421875,3.613746404647827,5.173500061035156,-1.1712733507156372
1740039583000113200,0.593113037109375,3.9604930877685547,5.5155253410339355,-1.0199419260025024
1740039583010153200,0.6031533203125,4.160832405090332,5.631348609924316,-0.830718994140625
1740039583020192300,0.613192138671875,4.154815673828125,5.591945171356201,-0.5968321561813354
1740039583030232000,0.623232177734375,3.920825958251953,5.378525733947754,-0.306836873292923
1740039583040271400,0.633271240234375,3.524545431137085,5.283600807189941,0.017797833308577538
1740039583050311400,0.6433115234375,3.132078170776367,5.516262054443359,0.31385481357574463
1740039583060351500,0.6533515625,2.8143742084503174,5.6671552658081055,0.4801332950592041
1740039583070390300,0.663390380859375,2.628284454345703,5.4183831214904785,0.4498576819896698
1740039583080430300,0.673430419921875,2.5366101264953613,4.869047164916992,0.2338777780532837
1740039583090469400,0.683469482421875,2.4172749519348145,4.265140056610107,-0.06981127709150314
1740039583100509200,0.69350927734375,2.1984689235687256,3.673102617263794,-0.284281849861145
1740039583110548200,0.70354833984375,1.8981373310089111,3.1671142578125,-0.2840099334716797
1740039583120587800,0.713587890625,1.5986026525497437,2.7993714809417725,-0.0809946358203888
1740039583130627800,0.7236279296875,1.387257695198059,2.5631492137908936,0.2348991334438324
1740039583140666600,0.73366650390625,1.1937214136123657,2.346100330352783,0.5450549721717834
1740039583150706700,0.743706787109375,0.9401492476463318,2.166232109069824,0.7810840606689453
1740039583160746000,0.75374609375,0.7045003175735474,1.8189553022384644,0.8987666368484497
1740039583170785800,0.763785888671875,0.49813008308410645,1.4182735681533813,0.8709847927093506
1740039583180824800,0.773824951171875,0.3181692957878113,1.0268840789794922,0.7342128157615662
1740039583190865000,0.783864990234375,0.15757057070732117,0.6675775647163391,0.5661689639091492
1740039583200905000,0.793905029296875,-0.0076790498569607735,0.42036357522010803,0.4749835431575775
1740039583210944000,0.803944091796875,-0.1698426604270935,0.2814413905143738,0.5080426335334778
1740039583220983800,0.81398388671875,-0.27331802248954773,0.16800029575824738,0.6493545770645142
1740039583231022800,0.82402294921875,-0.29864200949668884,0.05505509302020073,0.8405535817146301
1740039583241063000,0.83406298828125,-0.293497234582901,0.023516111075878143,1.021686315536499
1740039583251101700,0.844101806640625,-0.2813316583633423,0.07044793665409088,1.1557327508926392
1740039583261141800,0.854141845703125,-0.24136291444301605,0.14722418785095215,1.2093101739883423
1740039583271181800,0.864181884765625,-0.16197088360786438,0.20470185577869415,1.1878858804702759
1740039583281220900,0.874220947265625,-0.05820153281092644,0.23703134059906006,1.0965701341629028
1740039583291260700,0.8842607421875,0.006119133438915014,0.279330849647522,0.953259289264679
1740039583301299700,0.8942998046875,0.025290803983807564,0.3294539749622345,0.7960256934165955
1740039583311339800,0.90433984375,0.014123637229204178,0.3802809417247772,0.6546123623847961
1740039583321379000,0.914379150390625,-0.006408268585801125,0.4133571982383728,0.5452448129653931
1740039583331419000,0.9244189453125,-0.01661083847284317,0.38713014125823975,0.47496479749679565
1740039583341458700,0.934458740234375,-0.028583426028490067,0.3311358094215393,0.43762463331222534
1740039583351498000,0.944498046875,-0.049574196338653564,0.28640028834342957,0.4281102120876312
1740039583361538000,0.9545380859375,-0.08311979472637177,0.19536812603473663,0.4334370493888855
1740039583371576800,0.964576904296875,-0.149210125207901,0.13739830255508423,0.43648555874824524
1740039583381617000,0.974616943359375,-0.27882400155067444,0.10096561163663864,0.44280582666397095
1740039583391657000,0.984656982421875,-0.42099684476852417,0.0388345941901207,0.4736878275871277
1740039583401695700,0.99469580078125,-0.5351928472518921,-0.036891378462314606,0.5195958018302917
1740039583411735800,1.00473583984375,-0.6246521472930908,-0.12228509783744812,0.5496096014976501
1740039583421774800,1.01477490234375,-0.7131127119064331,-0.20510785281658173,0.5462863445281982
1740039583431815000,1.02481494140625,-0.7963253259658813,-0.29820743203163147,0.5357804298400879
1740039583441853700,1.034853759765625,-0.8446671366691589,-0.4020209312438965,0.5448545813560486
1740039583451893800,1.044893798828125,-0.86072838306427,-0.4909726679325104,0.5837977528572083
1740039583461933800,1.054933837890625,-0.8615317344665527,-0.5602570176124573,0.6537955403327942
1740039583471972900,1.064972900390625,-0.8423148989677429,-0.6285995841026306,0.7587597966194153
1740039583482012700,1.0750126953125,-0.7792184352874756,-0.6730788946151733,0.8834066390991211
1740039583492051700,1.0850517578125,-0.6852786540985107,-0.6408498287200928,0.9960631728172302
1740039583502091800,1.095091796875,-0.5739725828170776,-0.57181715965271,1.0693614482879639
1740039583512130800,1.105130859375,-0.47954246401786804,-0.519741415977478,1.077416181564331
1740039583522171000,1.1151708984375,-0.44242244958877563,-0.48084956407546997,1.023795247077942
1740039583532211000,1.1252109375,-0.4402408003807068,-0.47453388571739197,0.9453758001327515
1740039583542250000,1.13525,-0.4535103142261505,-0.48980626463890076,0.8678463697433472
1740039583552289800,1.145289794921875,-0.47646862268447876,-0.4748733639717102,0.8155841827392578
1740039583562328800,1.155328857421875,-0.4786278307437897,-0.4606575667858124,0.7966631650924683
1740039583572369000,1.165368896484375,-0.4299473762512207,-0.4771457314491272,0.7984616160392761
1740039583582408000,1.175407958984375,-0.3230108320713043,-0.4798696041107178,0.8122644424438477
1740039583592447700,1.18544775390625,-0.15957368910312653,-0.4497942626476288,0.8277320861816406
1740039583602487800,1.19548779296875,-0.012093450874090195,-0.3948395550251007,0.8471516370773315
1740039583612526800,1.20552685546875,0.07606570422649384,-0.30509287118911743,0.8804672360420227
1740039583622567000,1.21556689453125,0.11254256963729858,-0.21910223364830017,0.9191911816596985
1740039583632605700,1.225605712890625,0.11400917172431946,-0.15926659107208252,0.9457628726959229
1740039583642645800,1.235645751953125,0.08830194175243378,-0.1474694013595581,0.937153697013855
1740039583652684800,1.245684814453125,0.043220482766628265,-0.15032751858234406,0.8925143480300903
1740039583662724600,1.255724609375,-0.00792603101581335,-0.15076366066932678,0.8104702830314636
1740039583672764700,1.2657646484375,-0.06838911026716232,-0.17712976038455963,0.704420268535614
1740039583682804000,1.275803955078125,-0.1295747309923172,-0.23019322752952576,0.5929641127586365
1740039583692844000,1.285843994140625,-0.19879455864429474,-0.26661595702171326,0.48242080211639404
1740039583702882800,1.2958828125,-0.25470075011253357,-0.32805708050727844,0.3878990113735199
1740039583712923000,1.3059228515625,-0.30126720666885376,-0.38838085532188416,0.3155395984649658
1740039583722962000,1.3159619140625,-0.3358978033065796,-0.43375808000564575,0.2751685380935669
1740039583733002000,1.326001953125,-0.35986146330833435,-0.4924117922782898,0.26830556988716125
1740039583743041800,1.336041748046875,-0.3876453936100006,-0.5660211443901062,0.2923285961151123
1740039583753080800,1.346080810546875,-0.43248051404953003,-0.580015242099762,0.3389347195625305
1740039583763121000,1.356120849609375,-0.4837859570980072,-0.54068523645401,0.3832821547985077
1740039583773159700,1.36615966796875,-0.536952018737793,-0.5019263625144958,0.39353424310684204
1740039583783199700,1.37619970703125,-0.5700634121894836,-0.5083640813827515,0.3576907217502594
1740039583793238800,1.38623876953125,-0.5762933492660522,-0.5146722793579102,0.2927500903606415
1740039583803278800,1.39627880859375,-0.5679082870483398,-0.5049998164176941,0.2187304049730301
1740039583813318700,1.406318603515625,-0.5557461380958557,-0.5056903958320618,0.14098528027534485
1740039583823357700,1.416357666015625,-0.5543028712272644,-0.5398533344268799,0.07497144490480423
1740039583833397800,1.426397705078125,-0.5586898922920227,-0.5684074759483337,0.04168885201215744
1740039583843436800,1.436436767578125,-0.5775237083435059,-0.5839697122573853,0.038104359060525894
1740039583853476900,1.446476806640625,-0.6193795204162598,-0.6077693700790405,0.0596219003200531
1740039583863517000,1.456516845703125,-0.6573305726051331,-0.6623409390449524,0.09443626552820206
1740039583873556000,1.466555908203125,-0.6434387564659119,-0.7907622456550598,0.13850146532058716
1740039583883596000,1.476595947265625,-0.601152777671814,-0.8765630722045898,0.16054223477840424
1740039583893634800,1.486634765625,-0.5999703407287598,-0.9416198134422302,0.09734169393777847
1740039583903675000,1.4966748046875,-0.6740238666534424,-1.0581157207489014,-0.06747439503669739
1740039583913714000,1.5067138671875,-0.8208343386650085,-1.3024101257324219,-0.21844899654388428
1740039583923753700,1.516753662109375,-0.9852041006088257,-1.3592498302459717,-0.265738308429718
1740039583933793800,1.526793701171875,-1.0795944929122925,-1.3312307596206665,-0.2237090766429901
1740039583943832800,1.536832763671875,-1.095865249633789,-1.268337607383728,-0.0875856801867485
1740039583953873000,1.546872802734375,-1.042810320854187,-1.1364398002624512,0.13323591649532318
1740039583963911700,1.55691162109375,-0.9173091053962708,-0.9918921589851379,0.3964003026485443
1740039583973951700,1.56695166015625,-0.722801923751831,-0.9550998210906982,0.6417754292488098
1740039583983990800,1.57699072265625,-0.5423610806465149,-0.9928882718086243,0.8354654908180237
1740039583994030800,1.58703076171875,-0.4249385595321655,-1.0517252683639526,0.9745171070098877
1740039584004070700,1.597070556640625,-0.35926803946495056,-1.029366135597229,1.0445371866226196
1740039584014110000,1.60710986328125,-0.3066178560256958,-0.997891902923584,1.0725419521331787
1740039584024150000,1.61714990234375,-0.24561217427253723,-1.0027694702148438,1.0682170391082764
1740039584034188800,1.627188720703125,-0.20169077813625336,-0.999157726764679,1.0448622703552246
1740039584044228900,1.637228759765625,-0.1461896300315857,-1.005231261253357,1.015250563621521
1740039584054268000,1.647267822265625,-0.06168832629919052,-1.0498207807540894,0.992075502872467
1740039584064308000,1.657307861328125,0.037025995552539825,-1.0413506031036377,0.9598826766014099
1740039584074347800,1.66734765625,0.1486060470342636,-1.0406131744384766,0.945758044719696
1740039584084386800,1.67738671875,0.3340107500553131,-1.1220149993896484,1.0127133131027222
1740039584094427000,1.687427001953125,0.6095930337905884,-1.1856075525283813,1.1842783689498901
1740039584104465700,1.697465576171875,0.9043294191360474,-1.230809211730957,1.4519925117492676
1740039584114505700,1.707505615234375,1.1602543592453003,-1.2610398530960083,1.7723734378814697
1740039584124544800,1.717544677734375,1.3124154806137085,-1.223891258239746,2.0952537059783936
1740039584134584800,1.727584716796875,1.321580410003662,-1.1978974342346191,2.3608016967773438
1740039584144625000,1.737625,1.2249648571014404,-1.2285751104354858,2.532297372817993
1740039584154664000,1.747663818359375,1.0558615922927856,-1.2801810503005981,2.595071315765381
1740039584164703700,1.757703857421875,0.8883565068244934,-1.4352470636367798,2.540019989013672
1740039584174743000,1.767742919921875,0.7887937426567078,-1.5636231899261475,2.3832054138183594
1740039584184783000,1.777783203125,0.7659913301467896,-1.595697045326233,2.169513702392578
1740039584194823000,1.787822998046875,0.79360431432724,-1.6812814474105835,1.9483284950256348
1740039584204862000,1.797862060546875,0.830566942691803,-1.7852694988250732,1.734330177307129
1740039584214902000,1.807902099609375,0.839902400970459,-1.9987943172454834,1.5806227922439575
1740039584224941000,1.817941162109375,0.7737488150596619,-1.9400333166122437,1.5004239082336426
1740039584234981000,1.827981201171875,0.7328658103942871,-1.5272603034973145,1.4716920852661133
1740039584245020000,1.83802001953125,0.8352259993553162,-1.0167146921157837,1.4935628175735474
1740039584255060000,1.84806005859375,1.0332002639770508,-0.6388171315193176,1.582205891609192
1740039584265100000,1.85810009765625,1.1372191905975342,-0.46393057703971863,1.7102744579315186
1740039584275138800,1.868138916015625,1.0484338998794556,-0.37205150723457336,1.8226169347763062
1740039584285179000,1.878178955078125,0.8762482404708862,-0.2788209021091461,1.9003928899765015
1740039584295218000,1.888218017578125,0.7404339909553528,-0.1868070662021637,1.9112879037857056
1740039584305258000,1.898258056640625,0.6813163757324219,-0.19855532050132751,1.8554109334945679
1740039584315296800,1.908296875,0.6045310497283936,-0.2594362497329712,1.7611079216003418
1740039584325336800,1.9183369140625,0.4532420337200165,-0.2962973117828369,1.6375926733016968
1740039584335377000,1.928376953125,0.2589532434940338,-0.35581842064857483,1.5123149156570435
1740039584345416200,1.938416259765625,0.07342568039894104,-0.3949381709098816,1.4055018424987793
1740039584355456000,1.9484560546875,-0.07865679264068604,-0.4067452847957611,1.3375307321548462
1740039584365495000,1.9584951171875,-0.175223246216774,-0.36389726400375366,1.2969632148742676
1740039584375535000,1.96853515625,-0.1612757444381714,-0.3405053913593292,1.268912672996521
1740039584385575200,1.9785751953125,-0.02436918579041958,-0.37992414832115173,1.242031455039978
1740039584395614000,1.988614013671875,0.16311068832874298,-0.37395548820495605,1.195107102394104
1740039584405654000,1.998654052734375,0.32134562730789185,-0.3359810411930084,1.1176412105560303
1740039584415693000,2.008693115234375,0.39041978120803833,-0.356706827878952,1.01902437210083
1740039584425732900,2.01873291015625,0.3469794690608978,-0.45279791951179504,0.9119301438331604
1740039584435772000,2.02877197265625,0.25064122676849365,-0.6273441314697266,0.8138640522956848
1740039584445812000,2.03881201171875,0.1945306658744812,-0.8800427913665771,0.7347491383552551
1740039584455852000,2.04885205078125,0.1306624710559845,-0.995121955871582,0.6647120118141174
1740039584465890800,2.058890869140625,0.04406081885099411,-0.9561257362365723,0.6111515760421753
1740039584475931000,2.068930908203125,-0.026479927822947502,-0.8696444034576416,0.5704680681228638
1740039584485970000,2.078969970703125,-0.05745920166373253,-0.7567171454429626,0.5185128450393677
1740039584496010000,2.089010009765625,-0.020633544772863388,-0.7002719640731812,0.44811302423477173
1740039584506049000,2.099049072265625,0.04687420651316643,-0.6415473818778992,0.3673018217086792
1740039584516089000,2.109089111328125,0.11789778620004654,-0.5603353381156921,0.30009108781814575
1740039584526129000,2.11912890625,0.18432272970676422,-0.482413649559021,0.2592032551765442
1740039584536168000,2.12916796875,0.2269737869501114,-0.3498643934726715,0.2414383739233017
1740039584546208000,2.1392080078125,0.24802342057228088,-0.2250356525182724,0.2273579239845276
1740039584556247000,2.1492470703125,0.2507486343383789,-0.17158734798431396,0.20404088497161865
1740039584566287000,2.159287109375,0.22702085971832275,-0.1965404897928238,0.16175568103790283
1740039584576326000,2.169325927734375,0.17886266112327576,-0.27953869104385376,0.11439110338687897
1740039584586366000,2.179365966796875,0.1430872231721878,-0.3693053424358368,0.0802687257528305
1740039584596406000,2.189406005859375,0.14438949525356293,-0.4173213243484497,0.08298062533140182
1740039584606445000,2.199445068359375,0.1665298193693161,-0.3863438069820404,0.13044573366641998
1740039584616484900,2.20948486328125,0.19891679286956787,-0.3056635856628418,0.20899593830108643
1740039584626524000,2.21952392578125,0.23821772634983063,-0.2023461014032364,0.289053350687027
1740039584636564000,2.22956396484375,0.262113481760025,-0.08007664233446121,0.34545058012008667
1740039584646604000,2.23960400390625,0.25941401720046997,0.015870869159698486,0.35653531551361084
1740039584656642800,2.249642822265625,0.2490234375,0.08317746967077255,0.32486578822135925
1740039584666683000,2.259682861328125,0.23240958154201508,0.11125802248716354,0.2620210647583008
1740039584676722200,2.26972216796875,0.19783109426498413,0.10783746093511581,0.19570037722587585
1740039584686762000,2.279761962890625,0.14428935945034027,0.10296108573675156,0.15187309682369232
1740039584696801000,2.289801025390625,0.10670950263738632,0.07300611585378647,0.1423051655292511
1740039584706841000,2.299841064453125,0.09981529414653778,0.031017353758215904,0.16852211952209473
1740039584716881200,2.309881103515625,0.1115177571773529,-0.0035089331213384867,0.20961815118789673
1740039584726920000,2.319919921875,0.14539916813373566,-0.012837190181016922,0.24419008195400238
1740039584736960000,2.3299599609375,0.18704833090305328,0.0017348278779536486,0.24563643336296082
1740039584746999000,2.3399990234375,0.20955675840377808,0.025560583919286728,0.1987738162279129
1740039584757039000,2.3500390625,0.20761556923389435,0.041190680116415024,0.12923654913902283
1740039584767078000,2.360077880859375,0.17398130893707275,0.054469019174575806,0.04365122690796852
1740039584777118000,2.370117919921875,0.11376431584358215,0.04884602129459381,-0.03664281219244003
1740039584787158000,2.380157958984375,0.05203975364565849,-0.013912823051214218,-0.1009356752038002
1740039584797196800,2.39019677734375,-0.00534018175676465,-0.11472571641206741,-0.13531042635440826
1740039584807236900,2.40023681640625,-0.06007466837763786,-0.18426574766635895,-0.14378342032432556
1740039584817276000,2.41027587890625,-0.09396285563707352,-0.21960856020450592,-0.12880286574363708
1740039584827316000,2.42031591796875,-0.09362795948982239,-0.22637023031711578,-0.10523801296949387
1740039584837355800,2.430355712890625,-0.06901262700557709,-0.18661350011825562,-0.09197945892810822
1740039584847394800,2.440394775390625,-0.04720302298665047,-0.12064818292856216,-0.09433642029762268
1740039584857435000,2.450434814453125,-0.02483992651104927,-0.07662053406238556,-0.10529319941997528
1740039584867474200,2.46047412109375,-0.015239125117659569,-0.031923625618219376,-0.11844553053379059
1740039584877514000,2.470513916015625,-0.019833609461784363,-0.0008754259906709194,-0.13396430015563965
1740039584887553000,2.480552978515625,-0.02654357999563217,-0.012537584640085697,-0.14723734557628632
1740039584897593000,2.490593017578125,-0.032703202217817307,-0.04093380644917488,-0.15216898918151855
1740039584907633200,2.500633056640625,-0.045224666595458984,-0.06595494598150253,-0.14147749543190002
1740039584917672000,2.510671875,-0.05706854164600372,-0.08178450912237167,-0.1107824295759201
1740039584927712000,2.5207119140625,-0.05382569134235382,-0.09494464844465256,-0.06864853948354721
1740039584937751000,2.5307509765625,-0.046927038580179214,-0.07606843113899231,-0.02924440987408161
1740039584947790800,2.540790771484375,-0.03963050991296768,-0.0273288507014513,0.0076997592113912106
1740039584957830000,2.550829833984375,-0.02679353952407837,0.039204370230436325,0.031520403921604156
1740039584967870000,2.560869873046875,-0.012687389738857746,0.09892261773347855,0.03920358791947365
1740039584977910000,2.570909912109375,-0.0072249798104166985,0.15933269262313843,0.03385196626186371
1740039584987948800,2.58094873046875,-0.007178375963121653,0.20574209094047546,0.023934856057167053
1740039584997988900,2.59098876953125,-0.0037197284400463104,0.20621612668037415,0.016480403020977974
1740039585008028000,2.60102783203125,-0.00024022813886404037,0.17526774108409882,0.013863882049918175
1740039585018068000,2.61106787109375,-0.0004572756588459015,0.1515970379114151,0.03104366920888424
1740039585028107800,2.621107666015625,-0.0021078158169984818,0.13734517991542816,0.07001246511936188
1740039585038147000,2.63114697265625,0.017747914418578148,0.12885421514511108,0.11840663105249405
1740039585048187100,2.641187255859375,0.06701947748661041,0.13344842195510864,0.16097649931907654
1740039585058226000,2.651225830078125,0.14771965146064758,0.14791230857372284,0.1757970005273819
1740039585068266000,2.661265869140625,0.23846164345741272,0.17356647551059723,0.16158360242843628
1740039585078305000,2.671304931640625,0.3013990521430969,0.19789551198482513,0.12819023430347443
1740039585088345000,2.681344970703125,0.3169296085834503,0.22772526741027832,0.09314737468957901
1740039585098385000,2.691385009765625,0.311906099319458,0.2298416793346405,0.06610243767499924
1740039585108424000,2.701423828125,0.31658631563186646,0.17317086458206177,0.045225147157907486
1740039585118463700,2.711463623046875,0.32535505294799805,0.11814624071121216,0.023369917646050453
1740039585128502800,2.721502685546875,0.3492496609687805,0.08246763795614243,-0.0004958162317052484
1740039585138542600,2.73154248046875,0.39177608489990234,0.06847166270017624,-0.01545319426804781
1740039585148582700,2.741582763671875,0.43644165992736816,0.08449362218379974,-0.006189147010445595
1740039585158621700,2.75162158203125,0.48095691204071045,0.12302397191524506,0.020603584125638008
1740039585168661800,2.761661865234375,0.515937089920044,0.16888125240802765,0.05438454821705818
1740039585178700800,2.77170068359375,0.5279881358146667,0.2349119335412979,0.08943787217140198
1740039585188740600,2.78174072265625,0.5129668116569519,0.30062541365623474,0.1067856103181839
1740039585198780000,2.79177978515625,0.4814954102039337,0.34256458282470703,0.10939551144838333
1740039585208820000,2.801820068359375,0.427658349275589,0.37536686658859253,0.09424591064453125
1740039585218859800,2.81185986328125,0.3975907266139984,0.3640119433403015,0.06466031819581985
1740039585228898800,2.82189892578125,0.42522186040878296,0.34869322180747986,0.033407118171453476
1740039585238939000,2.83193896484375,0.4670811593532562,0.3617776036262512,0.010662123560905457
1740039585248977700,2.841977783203125,0.5087583661079407,0.4014049470424652,0.0186778474599123
1740039585259017700,2.852017822265625,0.5050680041313171,0.4458291530609131,0.05777891352772713
1740039585269056800,2.862056884765625,0.44025611877441406,0.4781189262866974,0.10284195095300674
1740039585279096800,2.872096923828125,0.3364274799823761,0.5081748366355896,0.1370486617088318
1740039585289136600,2.88213671875,0.24910956621170044,0.49826887249946594,0.14965666830539703
1740039585299175700,2.89217578125,0.18714898824691772,0.4730479419231415,0.13033969700336456
1740039585309215700,2.9022158203125,0.11142148077487946,0.48357143998146057,0.07847410440444946
1740039585319254500,2.912254638671875,0.01529415138065815,0.49403101205825806,0.0036627147346735
1740039585329294600,2.922294677734375,-0.07915003597736359,0.429131418466568,-0.0676666721701622
1740039585339334700,2.932334716796875,-0.19260630011558533,0.34267374873161316,-0.11000427603721619
1740039585349373700,2.942373779296875,-0.3170301616191864,0.31203901767730713,-0.1198994442820549
1740039585359413800,2.952413818359375,-0.4032105803489685,0.38834524154663086,-0.10430131107568741
1740039585369452800,2.962452880859375,-0.4358809292316437,0.5585706830024719,-0.07177232205867767
1740039585379492900,2.972492919921875,-0.4602288603782654,0.8014912009239197,-0.020455069839954376
1740039585389532000,2.982531982421875,-0.5398995876312256,1.092226505279541,0.04644227400422096
1740039585399571700,2.99257177734375,-0.6393004655838013,1.3919857740402222,0.12228751182556152
1740039585409611800,3.00261181640625,-0.7035104036331177,1.650571584701538,0.2031344622373581
1740039585419650800,3.01265087890625,-0.6133155226707458,1.8342431783676147,0.30339315533638
1740039585429691000,3.02269091796875,0.12316536158323288,2.0354793071746826,0.5762560367584229
1740039585439729700,3.032729736328125,0.6493527293205261,2.365412950515747,0.7908120155334473
1740039585449769700,3.042769775390625,0.7547100186347961,1.7456727027893066,0.2758522033691406
1740039585459809800,3.052809814453125,0.1986643224954605,0.9707178473472595,-0.8133947849273682
1740039585469848800,3.062848876953125,-0.6419699788093567,0.8343586325645447,-0.9583960771560669
1740039585479888600,3.072888671875,-1.2386850118637085,0.4751562476158142,-0.42776229977607727
1740039585489927700,3.082927734375,-1.5169341564178467,0.051383502781391144,0.15042157471179962
1740039585499967700,3.0929677734375,-1.6672805547714233,-0.27543509006500244,0.4604833126068115
1740039585510006800,3.1030068359375,-1.8977240324020386,-0.4696155786514282,0.5016877055168152
1740039585520046600,3.113046630859375,-2.604713201522827,-0.6112462282180786,0.4454955458641052
1740039585530086700,3.123086669921875,-2.792799711227417,-0.5143530368804932,0.539442241191864
1740039585540126000,3.1331259765625,-2.4271135330200195,-0.0013797390274703503,0.6830286979675293
1740039585550165800,3.143165771484375,-2.5438737869262695,0.814292311668396,0.7923104166984558
1740039585560204800,3.153204833984375,-2.476593255996704,1.3433253765106201,0.9025751352310181
1740039585570244900,3.163244873046875,-2.1269097328186035,1.6597554683685303,0.8555132746696472
1740039585580285000,3.173284912109375,-1.7168052196502686,1.9075168371200562,0.5732375979423523
1740039585590323700,3.18332373046875,-1.2087254524230957,2.055694103240967,0.0485982708632946
1740039585600363800,3.19336376953125,-1.1266568899154663,1.8428493738174438,-0.32363414764404297
1740039585610402800,3.20340283203125,-1.3439750671386719,1.2656623125076294,-0.4447270333766937
1740039585620443000,3.21344287109375,-1.5740755796432495,0.4746268391609192,-0.39052316546440125
1740039585630481700,3.223481689453125,-1.738795518875122,-0.3638184666633606,-0.33241334557533264
1740039585640521700,3.233521728515625,-1.81203293800354,-0.852948009967804,-0.3587972819805145
1740039585650561800,3.243561767578125,-1.5919036865234375,-0.9773657917976379,-0.46831756830215454
1740039585660600600,3.2536005859375,-1.302687644958496,-0.7703873515129089,-0.5838667750358582
1740039585670640600,3.263640625,-1.0749821662902832,-0.5396087765693665,-0.5348286628723145
1740039585680679700,3.2736796875,-0.9544842839241028,-0.3106309473514557,-0.31820979714393616
1740039585690719700,3.2837197265625,-1.0801643133163452,-0.1193251982331276,-0.1796867549419403
1740039585700758800,3.2937587890625,-1.21415114402771,0.045145511627197266,-0.22433331608772278
1740039585710798800,3.303798828125,-1.3007982969284058,0.1587136834859848,-0.3219638466835022
1740039585720839000,3.3138388671875,-1.2775750160217285,0.3116994798183441,-0.38504427671432495
1740039585730877700,3.323877685546875,-1.1188840866088867,0.2838727533817291,-0.4630119800567627
1740039585740917800,3.333917724609375,-0.9168403744697571,0.03214621916413307,-0.5890535116195679
1740039585750956800,3.343956787109375,-0.8931646943092346,-0.2114902287721634,-0.6585221886634827
1740039585760996900,3.353996826171875,-0.9651065468788147,-0.5547133684158325,-0.6208507418632507
1740039585771037000,3.364036865234375,-1.0084491968154907,-0.6695738434791565,-0.5569626092910767
1740039585781075700,3.37407568359375,-0.9290492534637451,-0.5623730421066284,-0.5301435589790344
1740039585791115800,3.38411572265625,-0.9289175868034363,-0.26980847120285034,-0.44405558705329895
1740039585801154800,3.39415478515625,-1.445570468902588,0.3659599721431732,0.2711922526359558
1740039585811194600,3.404194580078125,-1.2141878604888916,0.4624359607696533,0.434715211391449
1740039585821233700,3.414233642578125,-0.6976752281188965,0.34228000044822693,0.08099868148565292
1740039585831273700,3.424273681640625,-0.3065890669822693,0.19588930904865265,-0.26708993315696716
1740039585841313800,3.434313720703125,-0.28463396430015564,0.07180490344762802,-0.33343273401260376
1740039585851352600,3.4443525390625,-0.5490920543670654,-0.05572070553898811,-0.21760481595993042
1740039585861392600,3.454392578125,-0.6253759264945984,-0.39572033286094666,-0.05733497068285942
1740039585871432000,3.464431884765625,-0.5277925133705139,-0.5263822078704834,0.03167044743895531
1740039585881471700,3.4744716796875,-0.3527034819126129,-0.3943234980106354,-0.025456752628087997
1740039585891511600,3.484511474609375,-0.19212014973163605,-0.2991289496421814,-0.136748269200325
1740039585901550800,3.49455078125,-0.26465243101119995,-0.25744250416755676,-0.18723994493484497
1740039585911591000,3.5045908203125,-0.47526881098747253,-0.4635193943977356,-0.19491836428642273
1740039585921629700,3.514629638671875,-0.5788921117782593,-0.7937572002410889,-0.19232550263404846
1740039585931669800,3.524669677734375,-0.6427621245384216,-1.0207951068878174,-0.1728842556476593
1740039585941708800,3.534708740234375,-0.6184951066970825,-1.074459433555603,-0.17348612844944
1740039585951748900,3.544748779296875,-0.5899814367294312,-0.9210001826286316,-0.1967431604862213
1740039585961788700,3.55478857421875,-0.5976721048355103,-0.638676106929779,-0.18442390859127045
1740039585971827700,3.56482763671875,-0.45163285732269287,-0.26533225178718567,-0.13651315867900848
1740039585981867800,3.57486767578125,-0.1906106024980545,0.16984477639198303,-0.12120609730482101
1740039585991906600,3.584906494140625,-0.013780457898974419,0.4026308059692383,-0.11470364779233932
1740039586001946600,3.594946533203125,-0.18046477437019348,0.32172688841819763,-0.10864762216806412
1740039586011985700,3.604985595703125,-0.5458336472511292,-0.2768462300300598,-0.2243899703025818
1740039586022025700,3.615025634765625,-0.7955239415168762,-0.9581584930419922,-0.2944044768810272
1740039586032065800,3.625065673828125,-0.7690090537071228,-1.3432047367095947,-0.18614664673805237
1740039586042104800,3.635104736328125,-0.5890869498252869,-1.365301489830017,-0.013941055163741112
1740039586052144600,3.64514453125,-0.2979879677295685,-1.183572769165039,0.03460392355918884
1740039586062184000,3.655183837890625,-0.07750726491212845,-0.8318955302238464,-0.006440447643399239
1740039586072223700,3.6652236328125,-0.09131672978401184,-0.3667711019515991,-0.03257664293050766
1740039586082263800,3.675263916015625,-0.13212329149246216,-0.14962120354175568,-0.030102564021945
1740039586092302800,3.685302734375,-0.029362715780735016,-0.23117907345294952,0.006038322113454342
1740039586102343000,3.695343017578125,0.042074717581272125,-0.35732659697532654,0.04503339156508446
1740039586112381700,3.705381591796875,0.09424081444740295,-0.5689790844917297,0.025171997025609016
1740039586122421800,3.715421875,0.19926311075687408,-0.6629820466041565,-0.004312925040721893
1740039586132460500,3.72546044921875,0.30284640192985535,-0.643602192401886,-0.05059577152132988
1740039586142500600,3.73550048828125,0.4011591076850891,-0.8238880634307861,-0.15428487956523895
1740039586152540700,3.745540771484375,0.48113247752189636,-1.0031392574310303,-0.24611876904964447
1740039586162579700,3.755579833984375,0.5030263066291809,-1.0515437126159668,-0.2585459053516388
1740039586172619800,3.765619873046875,0.6087928414344788,-0.8964625000953674,-0.22303041815757751
1740039586182658600,3.775658447265625,0.7727175951004028,-0.5366811752319336,-0.18975235521793365
1740039586192698600,3.78569873046875,0.8517566323280334,-0.23904134333133698,-0.16103941202163696
1740039586202738700,3.79573876953125,0.8037331700325012,-0.09644026309251785,-0.05244848504662514
1740039586212777700,3.80577783203125,0.5107100605964661,-0.34280386567115784,0.17831474542617798
1740039586222817500,3.815817626953125,0.24445632100105286,-0.7507157325744629,0.26597535610198975
1740039586232856800,3.82585693359375,0.15787947177886963,-1.1090810298919678,0.2176811248064041
1740039586242897000,3.83589697265625,0.12164397537708282,-1.4292422533035278,0.08120743185281754
1740039586252935700,3.845935791015625,0.15815918147563934,-1.6955597400665283,-0.02071966789662838
1740039586262975700,3.855975830078125,0.23717357218265533,-1.8190468549728394,-0.025032389909029007
1740039586273015800,3.866015869140625,0.29293641448020935,-1.7325570583343506,0.05102357268333435
1740039586283054800,3.876054931640625,0.19809192419052124,-1.4313138723373413,0.11437617987394333
1740039586293094700,3.8860947265625,0.11821840703487396,-0.9651587605476379,0.07709328830242157
1740039586303133700,3.8961337890625,0.12010205537080765,-0.42377883195877075,0.03816373273730278
1740039586313173800,3.906173828125,0.19197915494441986,0.02161623165011406,0.06648889183998108
1740039586323213800,3.9162138671875,0.24428683519363403,0.3674894869327545,0.0791729986667633
1740039586333252600,3.926252685546875,0.2047513723373413,0.506331205368042,0.03944670036435127
1740039586343292700,3.936292724609375,0.1276635229587555,0.4810902774333954,-0.0169550571590662
1740039586353331700,3.946331787109375,0.06648437678813934,0.3160775899887085,-0.06827240437269211
1740039586363371500,3.95637158203125,0.007038626354187727,0.13192160427570343,-0.10281439870595932
1740039586373410800,3.966410888671875,-0.030406147241592407,0.14100424945354462,-0.11926772445440292
1740039586383450600,3.97645068359375,-0.07466868311166763,0.24866174161434174,-0.12122168391942978
1740039586393490700,3.98649072265625,-0.044556718319654465,0.2863959074020386,-0.08239930868148804
1740039586403529700,3.99652978515625,-0.01625903509557247,0.2849617898464203,-0.0477670319378376
1740039586413569800,4.00656982421875,-0.018359843641519547,0.2459387183189392,-0.02906893752515316
1740039586423608800,4.01660888671875,0.03325248509645462,0.1729619801044464,-0.007835021242499352
1740039586433649000,4.02664892578125,0.1331705003976822,0.081003338098526,0.025086360052227974
1740039586443688700,4.036688720703125,0.18917518854141235,-0.07082720100879669,0.06231388822197914
1740039586453727700,4.046727783203125,0.2095346450805664,-0.27843189239501953,0.09861395508050919
1740039586463767800,4.056767822265625,0.24119403958320618,-0.46332690119743347,0.12370918691158295
1740039586473806600,4.066806640625,0.29401659965515137,-0.5951311588287354,0.14378443360328674
1740039586483846700,4.0768466796875,0.3546559810638428,-0.70289546251297,0.1746118664741516
1740039586493885700,4.0868857421875,0.4074588418006897,-0.7251251935958862,0.20651455223560333
1740039586503925800,4.09692578125,0.3361963629722595,-0.612913966178894,0.258151650428772
1740039586513965600,4.106965576171875,0.1808372586965561,-0.44231295585632324,0.3081575632095337
1740039586524004600,4.117004638671875,0.09097820520401001,-0.2922734022140503,0.27910858392715454
1740039586534044700,4.127044677734375,0.13349343836307526,-0.16219183802604675,0.24617354571819305
1740039586544083700,4.137083740234375,0.17132897675037384,0.041365012526512146,0.2429705560207367
1740039586554123500,4.14712353515625,0.24239800870418549,0.14637643098831177,0.27177155017852783
1740039586564162800,4.157162841796875,0.28815749287605286,0.18905119597911835,0.25798356533050537
1740039586574203000,4.167202880859375,0.28511902689933777,0.20003874599933624,0.19245214760303497
1740039586584243000,4.177242919921875,0.27380406856536865,0.16441123187541962,0.11488892138004303
1740039586594281700,4.18728173828125,0.28813523054122925,0.11927854269742966,0.07637835294008255
1740039586604321800,4.19732177734375,0.28534770011901855,0.08482681959867477,0.033072154968976974
1740039586614360800,4.20736083984375,0.3094381093978882,0.057900577783584595,-0.024055015295743942
1740039586624400600,4.217400634765625,0.30508118867874146,0.022207561880350113,-0.10594934970140457
1740039586634440700,4.227440673828125,0.30969712138175964,-0.030279453843832016,-0.14321622252464294
1740039586644479700,4.237479736328125,0.2894216775894165,-0.09419345110654831,-0.13839642703533173
1740039586654519800,4.247519775390625,0.22837774455547333,-0.1435687094926834,-0.13843312859535217
1740039586664558600,4.25755859375,0.021843742579221725,-0.6049064993858337,-0.5169655084609985
1740039586674598700,4.2675986328125,-0.011018224991858006,-0.8190224766731262,-0.8124430179595947
1740039586684638700,4.277638671875,0.12554681301116943,-0.6298760175704956,-0.5354803800582886
1740039586694677800,4.287677734375,0.1375095248222351,-0.5132033824920654,-0.26851990818977356
1740039586704717600,4.297717529296875,0.1874091774225235,-0.47930508852005005,-0.06126101687550545
1740039586714756600,4.307756591796875,0.2065194845199585,-0.36143651604652405,0.055420588701963425
1740039586724796700,4.317796630859375,0.2884228825569153,-0.1724032163619995,0.15731659531593323
1740039586734835700,4.327835693359375,0.3837757706642151,0.06240137666463852,0.24658700823783875
1740039586744875800,4.337875732421875,0.3650290071964264,0.29608044028282166,0.23554794490337372
1740039586754915800,4.347915771484375,0.3439079225063324,0.4720115065574646,0.15834209322929382
1740039586764955000,4.357954833984375,0.31491968035697937,0.6200302839279175,0.08006726950407028
1740039586774994700,4.36799462890625,0.2677876651287079,0.7198603749275208,0.0028517821338027716
1740039586785033700,4.37803369140625,0.2609347999095917,0.7873296737670898,-0.08871115744113922
1740039586795073800,4.38807373046875,0.27018484473228455,0.8440072536468506,-0.1789804846048355
1740039586805112600,4.398112548828125,0.284460186958313,0.784286379814148,-0.2555384039878845
1740039586815152600,4.408152587890625,0.21439749002456665,0.631288468837738,-0.3070407509803772
1740039586825192700,4.418192626953125,0.14171050488948822,0.5745618343353271,-0.048703987151384354
1740039586835231700,4.428231689453125,0.09343414753675461,0.5198215842247009,0.17700546979904175
1740039586845271800,4.438271728515625,0.08026428520679474,0.574893057346344,0.16921491920948029
1740039586855310600,4.448310546875,0.12085647881031036,0.5974298715591431,-0.019380634650588036
1740039586865350700,4.4583505859375,0.16013197600841522,0.6186030507087708,-0.21748359501361847
1740039586875390700,4.468390625,0.2361356019973755,0.6701734066009521,-0.276004821062088
1740039586885429500,4.478429443359375,0.26273632049560547,0.8340374231338501,-0.08585644513368607
1740039586895469600,4.488469482421875,0.25845181941986084,0.9842338562011719,0.2099355310201645
1740039586905508900,4.4985087890625,0.21584418416023254,1.0813897848129272,0.3219510018825531
1740039586915549000,4.508548828125,0.09593787789344788,1.118498682975769,0.21675987541675568
1740039586925587700,4.518587646484375,0.04924759641289711,1.1099320650100708,0.04089270532131195
1740039586935627800,4.528627685546875,0.0363311804831028,1.1206039190292358,-0.089775949716568
1740039586945667800,4.538667724609375,0.058261241763830185,1.1394628286361694,-0.14790131151676178
1740039586955706600,4.54870654296875,0.06655403971672058,1.220346450805664,-0.12063149362802505
1740039586965746700,4.55874658203125,0.05459803715348244,1.300025224685669,-0.09133059531450272
1740039586975785700,4.56878564453125,0.05673597380518913,1.198279619216919,-0.17408977448940277
1740039586985825800,4.57882568359375,-0.09693828225135803,0.7701263427734375,-0.5757671594619751
1740039586995865900,4.588865966796875,-0.2502375543117523,0.558655858039856,-0.49096813797950745
1740039587005904600,4.598904541015625,-0.2753213346004486,0.17089110612869263,-0.38055506348609924
1740039587015944700,4.60894482421875,-0.38586923480033875,0.161445751786232,-0.24861077964305878
1740039587025983700,4.618983642578125,-0.4132726490497589,0.03534907102584839,-0.2038709968328476
1740039587036023600,4.6290234375,-0.40263059735298157,-0.008570123463869095,-0.18267636001110077
1740039587046062600,4.6390625,-0.3781856894493103,-0.02381245791912079,-0.1427779495716095
1740039587056102700,4.6491025390625,-0.3314562737941742,0.015494199469685555,-0.08785184472799301
1740039587066142700,4.659142822265625,-0.2306564450263977,0.31421858072280884,-0.06098054721951485
1740039587076181800,4.669181640625,-0.16291192173957825,0.9687536954879761,0.038531020283699036
1740039587086221600,4.6792216796875,-0.08470258861780167,1.3717454671859741,0.0667826309800148
1740039587096260900,4.6892607421875,-0.07340367883443832,1.3327834606170654,0.06926170736551285
1740039587106300700,4.69930078125,-0.14189858734607697,0.8875991106033325,0.11253594607114792
1740039587116340700,4.7093408203125,-0.16405731439590454,0.3092863857746124,0.1669405847787857
1740039587126380000,4.719380126953125,-0.19708503782749176,0.09645775705575943,0.13431259989738464
1740039587136420000,4.729420166015625,-0.19713227450847626,0.06205129250884056,0.08341030776500702
1740039587146459100,4.739459228515625,-0.17227034270763397,0.22808393836021423,0.10281036794185638
1740039587156499000,4.7494990234375,-0.18790066242218018,0.5770795345306396,0.15303058922290802
1740039587166538000,4.7595380859375,-0.2884099781513214,0.8387715816497803,0.09782752394676208
1740039587176578000,4.769578125,-0.25783368945121765,0.8799463510513306,0.16002123057842255
1740039587186618000,4.7796181640625,-0.261173814535141,0.8278152346611023,0.32302984595298767
1740039587196657000,4.789656982421875,-0.2030385285615921,0.708265483379364,0.4770854115486145
1740039587206697000,4.799697021484375,-0.23335328698158264,0.6789212226867676,0.5082246661186218
1740039587216736000,4.809736083984375,-0.4243161380290985,0.6916250586509705,0.5007758140563965
1740039587226775800,4.81977587890625,-0.5286459922790527,0.5574520230293274,0.46684470772743225
1740039587236816000,4.82981591796875,-0.6371500492095947,0.44176357984542847,0.3777081072330475
1740039587246855000,4.83985498046875,-0.5674543380737305,0.3195527195930481,0.31616219878196716
1740039587256895000,4.84989501953125,-0.5377328395843506,0.2749463617801666,0.26625683903694153
1740039587266934000,4.85993408203125,-0.5327059030532837,0.3237149715423584,0.2344168871641159
1740039587276974000,4.86997412109375,-0.5361154079437256,0.4041692316532135,0.2179548144340515
1740039587287013000,4.88001318359375,-0.4781205654144287,0.43783825635910034,0.199650377035141
1740039587297053200,4.89005322265625,-0.5258829593658447,0.5766911506652832,0.23935991525650024
1740039587307093000,4.900093017578125,-0.45847731828689575,0.5714964270591736,0.3402002453804016
1740039587317132000,4.910132080078125,-0.40600618720054626,0.45236971974372864,0.29660794138908386
1740039587327172000,4.920172119140625,-0.3923755884170532,0.27327027916908264,0.22529460489749908
1740039587337211000,4.9302109375,-0.26467999815940857,0.06059851869940758,0.12777407467365265
1740039587347251000,4.9402509765625,-0.24669833481311798,-0.05214693769812584,0.03398128226399422
1740039587357291000,4.950291015625,-0.3021882176399231,-0.04686455801129341,0.015793491154909134
1740039587367330000,4.960330078125,-0.4109967350959778,0.0016646285075694323,-0.029617134481668472
1740039587377370000,4.9703701171875,-0.5051644444465637,-0.06709396094083786,-0.04942288622260094
1740039587387409000,4.980408935546875,-0.33824655413627625,-0.005548305809497833,-0.11768955737352371
1740039587397449000,4.990448974609375,-0.23081107437610626,0.02237147092819214,-0.22994065284729004
1740039587407488000,5.000488037109375,-0.20799283683300018,-0.05324499309062958,-0.23044425249099731
1740039587417527800,5.01052783203125,-0.19550365209579468,-0.15092958509922028,-0.19531938433647156
1740039587427567900,5.02056787109375,-0.1841742992401123,-0.18624362349510193,-0.16955037415027618
1740039587437607200,5.030607177734375,-0.22864952683448792,-0.14402352273464203,-0.13356837630271912
1740039587447647000,5.04064697265625,-0.22884368896484375,-0.07198794931173325,-0.05253717303276062
1740039587457686000,5.05068603515625,-0.2169908583164215,0.09955698251724243,0.0349230021238327
1740039587467726000,5.06072607421875,-0.15136682987213135,0.2622883915901184,0.1206459030508995
1740039587477765000,5.07076513671875,-0.12756414711475372,0.34585362672805786,0.1966056525707245
1740039587487805000,5.080804931640625,-0.15443943440914154,0.2767656445503235,0.20447103679180145
1740039587497845000,5.090844970703125,-0.21466512978076935,0.17746713757514954,0.16572169959545135
1740039587507884000,5.100884033203125,-0.24224348366260529,0.10389571636915207,0.09710509330034256
1740039587517924000,5.110924072265625,-0.2679053246974945,0.031076831743121147,0.0509977713227272
1740039587527963000,5.120962890625,-0.3586285710334778,-0.031886421144008636,0.045165982097387314
1740039587538003000,5.1310029296875,-0.4711284339427948,-0.07022471725940704,0.06370478123426437
1740039587548043000,5.14104296875,-0.5240435600280762,-0.21004414558410645,0.04816257581114769
1740039587558082000,5.15108203125,-0.5138301849365234,-0.3758144676685333,-0.004856742452830076
1740039587568121900,5.161121826171875,-0.4336634874343872,-0.44955897331237793,-0.1010863408446312
1740039587578161000,5.171160888671875,-0.43838411569595337,-0.4582032859325409,-0.1992105096578598
1740039587588201000,5.181200927734375,-0.5664230585098267,-0.45472732186317444,-0.24099071323871613
1740039587598240000,5.191239990234375,-0.6217050552368164,-0.4227862060070038,-0.21509435772895813
1740039587608280000,5.201280029296875,-0.5712442398071289,-0.2679292559623718,-0.1755504012107849
1740039587618320000,5.21131982421875,-0.44654756784439087,-0.1138470321893692,-0.14777612686157227
1740039587628359200,5.221359130859375,-0.35828694701194763,-0.056156035512685776,-0.1654118448495865
1740039587638399000,5.23139892578125,-0.282462477684021,-0.05157504975795746,-0.14685523509979248
1740039587648438000,5.24143798828125,-0.2781580090522766,-0.1556926667690277,-0.13699887692928314
1740039587658478000,5.25147802734375,-0.2999076843261719,-0.2502610683441162,-0.11853746324777603
1740039587668518100,5.26151806640625,-0.3581637740135193,-0.22687239944934845,-0.09907668083906174
1740039587678557000,5.271556884765625,-0.36498746275901794,-0.17142581939697266,-0.07432590425014496
1740039587688597000,5.281596923828125,-0.3374687433242798,-0.11857112497091293,0.015210898593068123
1740039587698636000,5.291635986328125,-0.4407491981983185,-0.09916350245475769,0.05942649021744728
1740039587708676000,5.301676025390625,-0.5996400713920593,-0.19736570119857788,0.03089285083115101
1740039587718715000,5.31171484375,-0.5598649382591248,-0.35408493876457214,0.03258628025650978
1740039587728755000,5.3217548828125,-0.5468689799308777,-0.39859461784362793,0.07107321172952652
1740039587738795000,5.331794921875,-0.6377993822097778,-0.483732670545578,0.11205926537513733
1740039587748833800,5.341833740234375,-0.6824142932891846,-0.7704821228981018,0.20752613246440887
1740039587758873900,5.351873779296875,-0.6836680769920349,-0.8727127909660339,0.3054427206516266
1740039587768913200,5.3619130859375,-0.5734193325042725,-0.6532110571861267,0.2532445192337036
1740039587778953000,5.371952880859375,-0.454876184463501,-0.4697171151638031,0.046535007655620575
1740039587788993000,5.381992919921875,-0.2932675778865814,-0.3091415464878082,0.016437027603387833
1740039587799032000,5.392031982421875,-0.10961707681417465,-0.10693924129009247,0.05180281773209572
1740039587809072000,5.402072021484375,0.21577459573745728,0.20846985280513763,0.05053994804620743
1740039587819111200,5.412111083984375,0.5141388773918152,0.4591169059276581,-0.017461128532886505
1740039587829151000,5.42215087890625,0.5485328435897827,0.739567756652832,-0.035394854843616486
1740039587839190000,5.43218994140625,0.39791542291641235,1.0440452098846436,-0.002453885041177273
1740039587849230000,5.44222998046875,0.2163427174091339,1.2736495733261108,-0.04198957607150078
1740039587859270100,5.452270263671875,0.2475045770406723,1.2478381395339966,-0.11378425359725952
1740039587869309000,5.462308837890625,0.30381497740745544,0.9472948312759399,-0.09790196269750595
1740039587879349000,5.472348876953125,0.2677951455116272,0.5156375169754028,-0.007808396127074957
1740039587889388000,5.482387939453125,0.12260039895772934,0.16845135390758514,0.002465813187882304
1740039587899427800,5.492427734375,0.04480959102511406,-0.0968913659453392,-0.016257451847195625
1740039587909467000,5.502466796875,0.03300619497895241,-0.1540164351463318,-0.0613117441534996
1740039587919507000,5.5125068359375,-0.01879343017935753,-0.11047466844320297,-0.01035932544618845
1740039587929547000,5.522547119140625,-0.01808955892920494,-0.020606569945812225,0.006485168356448412
1740039587939586000,5.5325859375,-0.10574766248464584,0.2932634949684143,0.04872285947203636
1740039587949625900,5.5426259765625,-0.11347882449626923,0.40621960163116455,-0.019468707963824272
1740039587959665200,5.5526650390625,-0.12541992962360382,0.36940932273864746,-0.15443550050258636
1740039587969705200,5.562705322265625,-0.13070310652256012,0.2702827453613281,-0.21582430601119995
1740039587979745000,5.5727451171875,-0.13960060477256775,0.10668297857046127,-0.17924465239048004
1740039587989784000,5.5827841796875,-0.09976183623075485,-0.01538700982928276,-0.14212924242019653
1740039587999824100,5.59282421875,-0.05309875309467316,0.0033772927708923817,-0.10290764272212982
1740039588009863000,5.60286279296875,0.02090783230960369,-0.006981072016060352,-0.016436664387583733
1740039588019903000,5.612903076171875,0.07442440092563629,0.0087348073720932,0.011538250371813774
1740039588029942000,5.62294189453125,0.0761791542172432,0.10220084339380264,-0.005899861920624971
1740039588039982000,5.632982177734375,0.07240688800811768,0.09546127915382385,-0.018967797979712486
1740039588050022000,5.64302197265625,0.0767369195818901,0.12427055835723877,-0.03763202950358391
1740039588060061000,5.65306103515625,0.09232678264379501,0.0442744605243206,0.010899895802140236
1740039588070101000,5.66310107421875,0.14045168459415436,0.04746013507246971,0.1332135647535324
1740039588080140000,5.67314013671875,0.22115501761436462,0.26767677068710327,0.2356996089220047
1740039588090179800,5.683179931640625,0.2991675138473511,0.6350536942481995,0.2602725923061371
1740039588100220000,5.693219970703125,0.3494361937046051,0.9242976903915405,0.18633373081684113
1740039588110259000,5.703259033203125,0.37156492471694946,0.985095202922821,0.13900402188301086
1740039588120299000,5.713299072265625,0.4076429605484009,0.801850438117981,0.14678673446178436
1740039588130338000,5.723338134765625,0.4460417628288269,0.7037137746810913,0.16381604969501495
1740039588140377900,5.7333779296875,0.41519302129745483,0.5366817116737366,0.1535404771566391
1740039588150417000,5.7434169921875,0.34840014576911926,0.27421948313713074,0.17410674691200256
1740039588160457000,5.75345703125,0.3051200211048126,0.10905627906322479,0.1930948942899704
1740039588170497000,5.7634970703125,0.23911358416080475,0.016464823856949806,0.14329777657985687
1740039588180535800,5.773535888671875,0.2010209858417511,-0.07144758105278015,0.07223827391862869
1740039588190575900,5.783575927734375,0.17111128568649292,-0.15949620306491852,0.03816738724708557
1740039588200615000,5.793614990234375,0.1746826320886612,-0.3097745180130005,0.007727568969130516
1740039588210654700,5.80365478515625,0.1650284081697464,-0.41240182518959045,-0.015431279316544533
1740039588220694800,5.81369482421875,0.09879729896783829,-0.3958032727241516,-0.04839489236474037
1740039588230733800,5.82373388671875,0.030615314841270447,-0.3490664064884186,0.005920009687542915
1740039588240774000,5.83377392578125,-0.017737356945872307,-0.2952516973018646,0.07852882146835327
1740039588250812700,5.843812744140625,-0.038597896695137024,-0.2700779139995575,0.16781476140022278
1740039588260852700,5.853852783203125,-0.013663036748766899,-0.18070334196090698,0.09924869239330292
1740039588270892000,5.86389208984375,0.013996288180351257,-0.10312573611736298,0.031116247177124023
1740039588280931800,5.873931884765625,0.053487636148929596,-0.040224891155958176,0.00344106275588274
1740039588290971600,5.8839716796875,0.06442949920892715,0.1483711302280426,0.021715940907597542
1740039588301011000,5.894010986328125,0.09157431125640869,0.33773475885391235,0.04723228141665459
1740039588311051000,5.904051025390625,0.153470978140831,0.4180692732334137,0.19003364443778992
1740039588321089800,5.91408984375,0.13570725917816162,0.4204612374305725,0.32378149032592773
1740039588331129900,5.9241298828125,0.12134002894163132,0.32205715775489807,0.4395477771759033
1740039588341169000,5.9341689453125,0.1709880232810974,0.29244139790534973,0.3304382264614105
1740039588351209000,5.944208984375,0.23939931392669678,0.383653849363327,0.22980427742004395
1740039588361248800,5.954248779296875,0.2802823483943939,0.43454355001449585,0.23938244581222534
1740039588371287800,5.964287841796875,0.27985331416130066,0.4920249581336975,0.22801154851913452
1740039588381328000,5.974327880859375,0.27060556411743164,0.6013054251670837,0.2766681909561157
1740039588391366700,5.98436669921875,0.279471218585968,0.6838274598121643,0.3691227436065674
1740039588401406700,5.99440673828125,0.34422650933265686,0.9394679069519043,0.4676803946495056
1740039588411446800,6.00444677734375,0.40473058819770813,1.060839056968689,0.5574057698249817
1740039588421485800,6.01448583984375,0.4212268590927124,1.0149321556091309,0.5305492877960205
1740039588431526000,6.02452587890625,0.3767677843570709,0.8314374089241028,0.35801929235458374
1740039588441564700,6.034564697265625,0.3344554007053375,0.6402010321617126,0.17543013393878937
1740039588451604700,6.044604736328125,0.3172686994075775,0.5741703510284424,0.10546516627073288
1740039588461644000,6.05464404296875,0.3025854229927063,0.7190485596656799,0.10690467059612274
1740039588471683800,6.064683837890625,0.28147345781326294,0.9151057004928589,0.10982190072536469
1740039588481724000,6.074723876953125,0.24616099894046783,1.1047722101211548,0.09998179972171783
1740039588491763000,6.084762939453125,0.12836140394210815,1.063397765159607,0.09856313467025757
1740039588501803000,6.094802978515625,0.030585678294301033,0.7103137373924255,0.15470708906650543
1740039588511841800,6.104841796875,-0.15741512179374695,0.2740165591239929,0.16171705722808838
1740039588521881900,6.1148818359375,-0.19284304976463318,-0.06442689150571823,0.10782179981470108
1740039588531922000,6.124921875,-0.15461230278015137,-0.02795863337814808,0.08244320005178452
1740039588541961000,6.1349609375,-0.24595190584659576,-0.004931897856295109,0.058659087866544724
1740039588552000800,6.145000732421875,-0.4432825744152069,-0.10988254845142365,0.16996750235557556
1740039588562039800,6.155039794921875,-0.44050002098083496,-0.24801772832870483,0.2069869190454483
1740039588572079900,6.165079833984375,-0.34678924083709717,-0.0689888522028923,0.08478404581546783
1740039588582118700,6.17511865234375,-0.229465514421463,0.12501901388168335,-0.06410898268222809
1740039588592158700,6.18515869140625,-0.055872414261102676,0.12349435687065125,-0.06974823027849197
1740039588602198800,6.19519873046875,-0.03462406247854233,-0.08034598082304001,-0.018370676785707474
1740039588612237800,6.20523779296875,-0.07223349064588547,-0.35375380516052246,-0.03270940110087395
1740039588622277600,6.215277587890625,-0.15851417183876038,-0.6445505023002625,-0.18962906301021576
1740039588632317000,6.22531689453125,-0.21459528803825378,-0.7618408799171448,-0.2339611053466797
1740039588642357000,6.23535693359375,-0.2321099042892456,-0.8846068978309631,-0.19052235782146454
1740039588652396800,6.245396728515625,-0.23844237625598907,-0.9635672569274902,-0.11958160251379013
1740039588662435800,6.255435791015625,-0.22851422429084778,-0.98873370885849,-0.07103104144334793
1740039588672476000,6.265475830078125,-0.21305271983146667,-1.067224144935608,-0.06917508691549301
1740039588682515000,6.275514892578125,-0.26129716634750366,-1.2096022367477417,-0.08419733494520187
1740039588692555000,6.285554931640625,-0.3705141842365265,-1.3348355293273926,-0.07073718309402466
1740039588702593800,6.29559375,-0.5528161525726318,-1.406345009803772,-0.06638208776712418
1740039588712633900,6.3056337890625,-0.5645071864128113,-1.4684507846832275,0.005330982618033886
1740039588722674000,6.315673828125,-0.37410372495651245,-1.2009884119033813,0.13250237703323364
1740039588732712700,6.325712646484375,-0.16945390403270721,-0.9635269045829773,0.09163562953472137
1740039588742752800,6.335752685546875,-0.0185541994869709,-0.7796062231063843,-0.06849823147058487
1740039588752791800,6.345791748046875,0.0181119367480278,-0.568706214427948,-0.23073773086071014
1740039588762832000,6.355831787109375,0.01323022786527872,-0.2686615288257599,-0.3319803476333618
1740039588772871700,6.36587158203125,0.06466332823038101,0.03075927309691906,-0.36089321970939636
1740039588782910700,6.37591064453125,0.07107091695070267,0.18920598924160004,-0.3726644814014435
1740039588792950800,6.38595068359375,0.02680465392768383,0.1373414546251297,-0.38414669036865234
1740039588802989800,6.39598974609375,-0.06754951924085617,-0.04585768282413483,-0.4002644419670105
1740039588813030000,6.40602978515625,-0.1327413022518158,-0.20037242770195007,-0.43064287304878235
1740039588823069000,6.41606884765625,-0.15133698284626007,-0.22304779291152954,-0.4953356385231018
1740039588833109000,6.42610888671875,0.030787011608481407,-0.29039090871810913,-0.5451143980026245
1740039588843149000,6.436149169921875,0.25020766258239746,-0.2626323401927948,-0.5326999425888062
1740039588853187800,6.446187744140625,0.255888968706131,-0.13075950741767883,-0.5138735175132751
1740039588863228000,6.456227783203125,0.23402585089206696,0.10077759623527527,-0.5052396059036255
1740039588873267000,6.466266845703125,0.33412742614746094,0.2953025996685028,-0.5001561641693115
1740039588883306800,6.476306640625,0.4055013358592987,0.48775896430015564,-0.4743598401546478
1740039588893345800,6.486345703125,0.40503475069999695,0.6381548047065735,-0.42606526613235474
1740039588903385900,6.4963857421875,0.3328818678855896,0.6826075911521912,-0.4112297296524048
1740039588913426000,6.506426025390625,0.2795339524745941,0.6284796595573425,-0.3980603814125061
1740039588923464700,6.516464599609375,0.3035069406032562,0.52374666929245,-0.31908345222473145
1740039588933504800,6.5265048828125,0.3705557584762573,0.4521702229976654,-0.1965833604335785
1740039588943543800,6.536543701171875,0.4490306079387665,0.46764329075813293,-0.09218233078718185
1740039588953583600,6.54658349609375,0.520458459854126,0.5047944188117981,-0.01891690120100975
1740039588963623700,6.556623779296875,0.5217248797416687,0.5529356002807617,0.0038503906689584255
1740039588973663000,6.5666630859375,0.47206467390060425,0.40398505330085754,0.09896785020828247
1740039588983702800,6.576702880859375,0.41407087445259094,0.6021726131439209,0.2755577564239502
1740039588993741800,6.586741943359375,0.27970507740974426,0.9627361297607422,0.45634591579437256
1740039589003782000,6.596781982421875,0.005481414496898651,1.1620328426361084,0.5842751264572144
1740039589013821000,6.606821044921875,-0.19576141238212585,1.215164303779602,0.6866605877876282
1740039589023861000,6.616861083984375,-0.3761918246746063,0.8371111750602722,0.8460931777954102
1740039589033900800,6.62690087890625,-0.7136742472648621,0.5307938456535339,0.801628828048706
1740039589043939800,6.63693994140625,-0.8293200135231018,0.42425793409347534,0.5287665128707886
1740039589053980000,6.64697998046875,-0.8336010575294495,-0.04721905663609505,0.3277021050453186
1740039589064018700,6.657018798828125,-0.7685782313346863,-0.6457331776618958,0.2957261800765991
1740039589074058800,6.667058837890625,-0.6263049840927124,-0.4657306373119354,0.3950660824775696
1740039589084098800,6.677098876953125,-0.964835524559021,0.8423307538032532,0.335476279258728
1740039589094137900,6.687137939453125,-1.210403561592102,1.439980387687683,0.21846628189086914
1740039589104178000,6.697177978515625,-1.3313995599746704,1.2515045404434204,0.09596600383520126
1740039589114216700,6.707216796875,-1.4606082439422607,0.7433952689170837,0.04548445716500282
1740039589124256500,6.717256591796875,-1.5404925346374512,0.34618398547172546,-0.02021186053752899
1740039589134295800,6.7272958984375,-1.6703523397445679,0.07645956426858902,-0.0620458610355854
1740039589144336000,6.7373359375,-1.8032268285751343,0.3912256360054016,-0.18429793417453766
1740039589154375700,6.747375732421875,-1.7949042320251465,0.9823092222213745,-0.30352792143821716
1740039589164414700,6.757414794921875,-1.6434032917022705,1.3949886560440063,-0.3035676181316376
1740039589174454800,6.767454833984375,-1.5613113641738892,1.752191185951233,-0.24796134233474731
1740039589184493600,6.77749365234375,-1.411356806755066,1.7140432596206665,0.024408044293522835
1740039589194533600,6.78753369140625,-1.1588592529296875,1.6601147651672363,0.20807906985282898
1740039589204572700,6.79757275390625,-0.8796439170837402,1.5223010778427124,0.37554189562797546
1740039589214612700,6.80761279296875,-0.620097815990448,0.8615555763244629,0.5364588499069214
1740039589224652500,6.817652587890625,-0.2913246154785156,0.03123677894473076,0.49908995628356934
1740039589234691600,6.827691650390625,-0.04720355570316315,-0.42155492305755615,0.3641177713871002
1740039589244731600,6.837731689453125,0.2258925437927246,-0.4775850474834442,0.23782633244991302
1740039589254770400,6.8477705078125,0.43198683857917786,-0.6549593210220337,0.002363742794841528
1740039589264810500,6.857810546875,0.41563135385513306,-0.8358129858970642,-0.2621484100818634
1740039589274850600,6.8678505859375,0.17825902998447418,-0.4181936979293823,-0.42161452770233154
1740039589284889600,6.8778896484375,-0.018246499821543694,0.4600696563720703,-0.4789884090423584
1740039589294929700,6.8879296875,-0.2503327429294586,0.874710202217102,-0.5085238814353943
1740039589304968700,6.89796875,-0.4292723834514618,0.5324169993400574,-0.4253283143043518
1740039589315008800,6.9080087890625,-0.48280298709869385,-0.0739070251584053,-0.0630824938416481
1740039589325047800,6.9180478515625,-0.5569076538085938,-0.5208683013916016,0.2027190774679184
1740039589335087600,6.928087646484375,-0.6495539546012878,-0.7629472017288208,0.27412351965904236
1740039589345127700,6.938127685546875,-0.6568644046783447,-0.8952961564064026,0.23706336319446564
1740039589355166700,6.948166748046875,-0.7329556941986084,-0.8690062165260315,0.09078604727983475
1740039589365206800,6.958206787109375,-0.7588567733764648,-0.6080637574195862,-0.11736483871936798
1740039589375245600,6.96824560546875,-0.7317876219749451,-0.2787018120288849,-0.29277661442756653
1740039589385285600,6.97828564453125,-0.6681743264198303,0.03289569541811943,-0.39371082186698914
1740039589395325700,6.98832568359375,-0.6456631422042847,0.1814369559288025,-0.30403923988342285
1740039589405364500,6.998364501953125,-0.6591524481773376,0.04501263424754143,-0.1171637549996376
1740039589415404500,7.008404541015625,-0.7169952988624573,-0.20946572721004486,0.01991233602166176
1740039589425443600,7.018443603515625,-0.737117350101471,-0.2709718346595764,0.06128092110157013
1740039589435483600,7.028483642578125,-0.6787192821502686,-0.14180295169353485,0.05714050680398941
1740039589445522400,7.0385224609375,-0.5373861789703369,-0.1480170339345932,-0.043669309467077255
1740039589455562500,7.0485625,-0.390520304441452,-0.3343445658683777,-0.17115376889705658
1740039589465602600,7.0586025390625,-0.3987397253513336,-0.05919523909687996,-0.21458010375499725
1740039589475641600,7.0686416015625,-0.454568088054657,0.17318473756313324,-0.19568683207035065
1740039589485681400,7.078681396484375,-0.4939698576927185,0.2097439467906952,-0.14743393659591675
1740039589495720700,7.088720703125,-0.5249629020690918,0.2896462380886078,-0.07013355195522308
1740039589505760800,7.0987607421875,-0.5840027928352356,0.35216179490089417,-0.0458836555480957
1740039589515800800,7.10880078125,-0.6323021054267883,0.34507057070732117,-0.008160511031746864
1740039589525839600,7.118839599609375,-0.6085056662559509,0.4110786020755768,0.04127369821071625
1740039589535879700,7.128879638671875,-0.567398190498352,0.31609588861465454,0.05887746065855026
1740039589545918700,7.138918701171875,-0.5121008157730103,0.04087372496724129,0.08599506318569183
1740039589555958500,7.14895849609375,-0.4340372085571289,0.003269359702244401,0.028304606676101685
1740039589565997600,7.15899755859375,-0.41057735681533813,0.1540534943342209,-0.016384799033403397
1740039589576037600,7.16903759765625,-0.3907359838485718,0.19144880771636963,-0.10546301305294037
1740039589586077700,7.17907763671875,-0.3143659830093384,0.2065187245607376,-0.17040544748306274
1740039589596116500,7.189116455078125,-0.293249249458313,0.12431146949529648,-0.15218889713287354
1740039589606156500,7.199156494140625,-0.22618702054023743,0.04710504785180092,-0.06499350816011429
1740039589616195600,7.209195556640625,-0.16305439174175262,0.027748126536607742,0.026746533811092377
1740039589626235600,7.219235595703125,-0.1699226200580597,0.02827184647321701,0.16498202085494995
1740039589636274700,7.229274658203125,-0.18235160410404205,0.10094711929559708,0.3134708106517792
1740039589646314500,7.239314453125,-0.10553859919309616,0.18962782621383667,0.4072432219982147
1740039589656354600,7.2493544921875,0.007807665038853884,-0.3351536691188812,0.6483067274093628
1740039589666393600,7.2593935546875,0.008278691209852695,-0.1765771061182022,0.8468762040138245
1740039589676433700,7.26943359375,0.1304996758699417,-0.12745723128318787,0.9955900311470032
1740039589686472700,7.27947265625,0.30710116028785706,-0.15785673260688782,1.1472059488296509
1740039589696512800,7.2895126953125,0.3686327040195465,-0.17224472761154175,1.2435007095336914
1740039589706552800,7.299552734375,0.3930377960205078,-0.13295581936836243,1.2569419145584106
1740039589716591600,7.309591552734375,0.4580838978290558,0.019790848717093468,1.2002825736999512
1740039589726631700,7.319631591796875,0.48029449582099915,0.174819678068161,1.155943751335144
1740039589736670700,7.329670654296875,0.5305110812187195,0.15467312932014465,1.0729475021362305
1740039589746710500,7.33971044921875,0.5215511918067932,-0.052541013807058334,0.955237865447998
1740039589756749600,7.34974951171875,0.41886693239212036,-0.24494321644306183,0.6315175890922546
1740039589766789600,7.35978955078125,0.4874526858329773,-0.3182634711265564,0.20549650490283966
1740039589776829700,7.36982958984375,0.4652177095413208,-0.2605772614479065,-0.05584721267223358
1740039589786868500,7.379868408203125,0.3397909104824066,-0.08998198807239532,-0.43389230966567993
1740039589796908500,7.389908447265625,0.13436932861804962,-0.0014550539199262857,-0.5337514877319336
1740039589806947600,7.399947509765625,-0.005664367228746414,-0.011474733240902424,-0.5587844848632812
1740039589816987400,7.4099873046875,-0.09919777512550354,-0.06295789778232574,-0.6251741647720337
1740039589827027500,7.42002734375,-0.08387528359889984,-0.1716098040342331,-0.7084083557128906
1740039589837066800,7.430066650390625,-0.06611785292625427,-0.14906135201454163,-0.7641009092330933
1740039589847106800,7.44010693359375,-0.051829516887664795,-0.258673757314682,-0.653444230556488
1740039589857145600,7.4501455078125,-0.05295656993985176,-0.2964980900287628,-0.47801464796066284
1740039589867185700,7.460185546875,-0.07174120098352432,-0.3033673167228699,-0.18153704702854156
1740039589877224700,7.470224609375,-0.12618526816368103,-0.1977679431438446,0.05376468226313591
1740039589887264800,7.4802646484375,-0.16744355857372284,-0.04525373503565788,0.1998535394668579
1740039589897304600,7.4903046875,-0.218036949634552,0.04056423157453537,0.2646735608577728
1740039589907343600,7.500343505859375,-0.25170204043388367,0.07997463643550873,0.2503146231174469
1740039589917383700,7.5103837890625,-0.27337273955345154,0.12477832287549973,0.19561462104320526
1740039589927422500,7.52042236328125,-0.2819318473339081,0.057747963815927505,0.12348228693008423
1740039589937462500,7.530462646484375,-0.2909359931945801,0.05500064417719841,0.05424808710813522
1740039589947502600,7.540502685546875,-0.3286099433898926,0.14873023331165314,-0.015437179245054722
1740039589957541600,7.550541748046875,-0.3230460584163666,0.17075803875923157,-0.027656294405460358
1740039589967581400,7.56058154296875,-0.3342224657535553,0.12731756269931793,0.013275728560984135
1740039589977620500,7.570620361328125,-0.36169564723968506,0.27553126215934753,-0.018206296488642693
1740039589987660500,7.58066064453125,-0.36076948046684265,0.3280700743198395,-0.08844753354787827
1740039589997699800,7.590699951171875,-0.2805667817592621,0.3669722080230713,-0.21526911854743958
1740039590007739600,7.60073974609375,-0.34926000237464905,0.11032559722661972,-0.3945206105709076
1740039590017779700,7.61077978515625,-0.1574263721704483,-0.11738612502813339,-0.546515703201294
1740039590027818800,7.62081884765625,-0.10566670447587967,-0.13041391968727112,-0.5336103439331055
1740039590037858800,7.63085888671875,-0.11345751583576202,-0.02487710863351822,-0.6612522006034851
1740039590047897600,7.640897705078125,-0.07081588357686996,-0.1069803386926651,-0.7333393692970276
1740039590057937700,7.650937744140625,-0.011027919128537178,-0.2560150921344757,-0.7431981563568115
1740039590067976700,7.660976806640625,0.09651513397693634,-0.2852632999420166,-0.6920140385627747
1740039590078016500,7.6710166015625,0.24414213001728058,-0.12300490587949753,-0.7431578636169434
1740039590088056600,7.681056640625,0.44572147727012634,0.24285057187080383,-0.9134880304336548
1740039590098095600,7.691095703125,0.7287736535072327,0.5985772609710693,-1.1149427890777588
1740039590108135700,7.7011357421875,1.0050709247589111,0.17673718929290771,-0.7583301067352295
1740039590118174500,7.711174560546875,1.1588597297668457,-0.5429480075836182,-0.28319576382637024
1740039590128214000,7.721214111328125,1.3644572496414185,-0.18271484971046448,-0.327531099319458
1740039590138254000,7.731254150390625,1.4506198167800903,0.35149872303009033,-0.2585805058479309
1740039590148293400,7.74129345703125,1.1087206602096558,0.5939807295799255,-0.06100957468152046
1740039590158333200,7.751333251953125,0.6437057256698608,0.6979303359985352,0.05454658344388008
1740039590168372200,7.761372314453125,0.3099445700645447,0.5777631402015686,0.03215831145644188
1740039590178412300,7.771412353515625,0.25387120246887207,0.4877360463142395,-0.054093483835458755
1740039590188451300,7.781451416015625,0.3678986132144928,0.537002682685852,-0.0812574177980423
1740039590198491100,7.7914912109375,0.5284757614135742,0.6317552924156189,-0.07544160634279251
1740039590208531200,7.80153125,0.6097796559333801,0.4904988706111908,0.20513777434825897
1740039590218570200,7.8115703125,0.3976815342903137,0.417069673538208,-0.0014090037439018488
1740039590228610300,7.8216103515625,0.1385228931903839,0.2841544449329376,-0.075750932097435
1740039590238649000,7.831649169921875,-0.07133125513792038,0.17308278381824493,-0.222474604845047
1740039590248689200,7.841689208984375,-0.19166827201843262,0.09093469381332397,-0.34520524740219116
1740039590258729200,7.851729248046875,-0.23986349999904633,0.04093890264630318,-0.4290468692779541
1740039590268768300,7.861768310546875,-0.2541768252849579,0.14350534975528717,-0.48187941312789917
1740039590278808000,7.87180810546875,-0.20679175853729248,0.26130789518356323,-0.4976983368396759
1740039590288847000,7.88184716796875,-0.19577725231647491,0.26107367873191833,-0.42780178785324097
1740039590298887200,7.89188720703125,-0.19286003708839417,0.17992396652698517,-0.307921439409256
1740039590308926200,7.90192626953125,-0.1332349181175232,0.08070070296525955,-0.23861977458000183
1740039590318966300,7.91196630859375,-0.15668298304080963,0.00005565560422837734,-0.234442338347435
1740039590329006000,7.922006103515625,-0.22884763777256012,0.014649907127022743,-0.2516779601573944
1740039590339045400,7.93204541015625,-0.30120599269866943,0.11813981086015701,-0.23116472363471985
1740039590349085200,7.942085205078125,-0.3490755259990692,0.18546603620052338,-0.1564287692308426
1740039590359124200,7.952124267578125,-0.3529094159603119,0.22592104971408844,-0.09232727438211441
1740039590369164300,7.962164306640625,-0.30434921383857727,0.21584106981754303,-0.02618086338043213
1740039590379204400,7.972204345703125,-0.244690403342247,0.13729779422283173,-0.006808496546000242
1740039590389243100,7.9822431640625,-0.2704043686389923,0.11725614964962006,-0.0024762917309999466
1740039590399283200,7.992283203125,-0.29595446586608887,0.16220791637897491,0.011666425503790379
1740039590409322200,8.002322265625,-0.2861376702785492,0.1494157910346985,-0.013488846831023693
1740039590419362300,8.0123623046875,-0.26907747983932495,0.1175883412361145,-0.09728654474020004
1740039590429401000,8.022401123046874,-0.23932726681232452,0.15002286434173584,-0.20883183181285858
1740039590439441200,8.032441162109375,-0.1671108603477478,0.21312913298606873,-0.27736347913742065
1740039590449481200,8.042481201171874,-0.06819687783718109,0.24601052701473236,-0.261173814535141
1740039590459520000,8.05252001953125,-0.02046956866979599,0.14491614699363708,-0.15747804939746857
1740039590469560000,8.06256005859375,0.0035525402054190636,-0.059713974595069885,-0.03450251370668411
1740039590479599400,8.072599365234375,0.01985854282975197,-0.18245214223861694,-0.0024532347451895475
1740039590489639200,8.08263916015625,0.10263233631849289,-0.20932403206825256,0.0008160975994542241
1740039590499678200,8.09267822265625,0.11498860269784927,-0.25945162773132324,0.021526969969272614
1740039590509718300,8.10271826171875,0.12103498727083206,-0.1902296543121338,0.04292112588882446
1740039590519758300,8.11275830078125,0.10269273817539215,-0.09437769651412964,-0.023478137329220772
1740039590529797400,8.12279736328125,0.16212256252765656,-0.26880812644958496,-0.09883726388216019
1740039590539837200,8.132837158203126,-0.12556488811969757,0.06095327064394951,-0.15704169869422913
1740039590549876200,8.142876220703124,0.028196342289447784,0.028020069003105164,-0.04116939380764961
1740039590559916300,8.152916259765625,-0.07201681286096573,-0.43077415227890015,0.063160739839077
1740039590569956400,8.162956298828124,-0.03715430200099945,-0.2336776852607727,0.018502309918403625
1740039590579995100,8.1729951171875,0.0634857565164566,-0.17686845362186432,-0.05331302434206009
1740039590590035200,8.18303515625,0.10836201161146164,-0.12738923728466034,-0.11695576459169388
1740039590600074200,8.19307421875,0.13495208323001862,-0.13552092015743256,-0.1255125105381012
1740039590610114000,8.203114013671875,0.16140305995941162,-0.24419566988945007,-0.14371009171009064
1740039590620153000,8.213153076171874,0.24451179802417755,-0.3343748450279236,-0.18957984447479248
1740039590630193200,8.223193115234375,0.19099798798561096,-0.4067506194114685,-0.2939494848251343
1740039590640233200,8.233233154296874,0.15328016877174377,-0.15922337770462036,-0.3920403718948364
1740039590650272300,8.243272216796875,0.16437450051307678,-0.16373635828495026,-0.3949436843395233
1740039590660312000,8.25331201171875,0.11610603332519531,-0.2314123511314392,-0.3218502998352051
1740039590670351400,8.263351318359375,0.08103480935096741,-0.20982936024665833,-0.28110620379447937
1740039590680391400,8.273391357421875,0.03905140981078148,-0.1316610425710678,-0.22831222414970398
1740039590690431200,8.28343115234375,0.07803577929735184,-0.04334854334592819,-0.15517042577266693
1740039590700470300,8.29347021484375,0.08202333003282547,-0.04550197720527649,-0.08289889246225357
1740039590710510300,8.30351025390625,0.07740655541419983,-0.06310871988534927,-0.0357462540268898
1740039590720549000,8.313549072265625,0.1238480880856514,-0.13345398008823395,-0.07390429079532623
1740039590730589200,8.323589111328126,0.2585265636444092,-0.053596194833517075,-0.10243167728185654
1740039590740628200,8.333628173828124,0.26759570837020874,-0.40128013491630554,-0.071445532143116
1740039590750668300,8.343668212890625,0.22500425577163696,-0.28721433877944946,-0.1358257681131363
1740039590760708000,8.3537080078125,0.1928977221250534,-0.15378065407276154,-0.12921766936779022
1740039590770747100,8.3637470703125,0.12380705773830414,-0.1743999719619751,-0.022083863615989685
1740039590780787200,8.373787109375,0.08427748829126358,-0.15615785121917725,0.013162806630134583
1740039590790826200,8.383826171875,0.09870284050703049,-0.12689067423343658,-0.02355848252773285
1740039590800866000,8.393865966796875,0.08987366408109665,-0.12142505496740341,-0.06912810355424881
1740039590810906000,8.403906005859374,0.20732057094573975,-0.17099308967590332,-0.015419899486005306
1740039590820945200,8.413945068359375,0.1612500250339508,-0.442543089389801,0.03975414112210274
1740039590830985200,8.423985107421874,0.15688195824623108,-0.3594082295894623,0.015723250806331635
1740039590841024300,8.434024169921875,0.08140479028224945,-0.13368774950504303,-0.016522036865353584
1740039590851064300,8.444064208984376,0.07389024645090103,-0.07372124493122101,-0.021885717287659645
1740039590861103400,8.454103271484374,0.06543897092342377,-0.060322344303131104,-0.02059861086308956
1740039590871143200,8.46414306640625,0.08640774339437485,-0.06477512419223785,-0.09227018058300018
1740039590881183200,8.474183349609374,0.19521093368530273,-0.056260474026203156,-0.1802639365196228
1740039590891222300,8.48422216796875,0.2214498221874237,-0.15628035366535187,-0.2081870287656784
1740039590901262300,8.494262451171876,0.17888052761554718,-0.10632824152708054,-0.2431202381849289
1740039590911301000,8.504301025390625,0.18480037152767181,0.00760772405192256,-0.3141418397426605
1740039590921341200,8.514341064453125,0.1396230310201645,0.11221269518136978,-0.37836024165153503
1740039590931381200,8.52438134765625,0.11931920051574707,0.21877412497997284,-0.45910337567329407
1740039590941420300,8.534420166015625,0.2505408525466919,0.14018051326274872,-0.631157398223877
1740039590951460000,8.544460205078124,0.08406437933444977,0.05131165310740471,-0.5194597244262695
1740039590961499100,8.5544990234375,0.07673083245754242,0.32245340943336487,-0.49921461939811707
1740039590971539200,8.564539306640626,0.07917281240224838,0.4121239185333252,-0.5031139254570007
1740039590981578000,8.574577880859374,0.3381305932998657,0.5804495215415955,-0.5891870260238647
1740039590991618000,8.5846181640625,0.805751621723175,0.6319117546081543,-0.856363832950592
1740039591001658000,8.594658203125,1.1620898246765137,0.6235134601593018,-1.0851858854293823
1740039591011697400,8.604697509765625,1.1674753427505493,0.2007531225681305,-0.8003569841384888
1740039591021737200,8.6147373046875,0.9454265236854553,-0.7224615216255188,-0.037632688879966736
1740039591031776300,8.6247763671875,0.7043256759643555,-0.8678230047225952,0.3486669361591339
1740039591041816300,8.63481640625,0.6051061153411865,-0.32828018069267273,0.3316804766654968
1740039591051855400,8.64485546875,0.5904946327209473,0.08277411758899689,0.2934056222438812
1740039591061895200,8.654895263671875,0.5555994510650635,0.11806020140647888,0.282479465007782
1740039591071935200,8.664935302734374,0.48804083466529846,0.07157858461141586,0.3293915092945099
1740039591081974300,8.674974365234375,0.46462181210517883,0.05881325900554657,0.42093393206596375
1740039591092014300,8.685014404296876,0.39775973558425903,0.02208157442510128,0.4813752770423889
1740039591102053000,8.69505322265625,0.19213920831680298,-0.26130834221839905,-0.06282491981983185
1740039591112093200,8.70509326171875,0.05941154807806015,-0.1564914584159851,-0.4455249011516571
1740039591122133200,8.71513330078125,-0.08761678636074066,0.06531629711389542,-0.49403437972068787
1740039591132172800,8.7251728515625,-0.14610397815704346,0.10706634819507599,-0.2397538721561432
1740039591142212900,8.735212890625,-0.16358709335327148,0.160803884267807,0.005404489580541849
1740039591152251600,8.745251708984375,-0.24487324059009552,0.14489953219890594,0.03407951071858406
1740039591162291700,8.755291748046876,-0.2683071792125702,0.07118456810712814,-0.07566802948713303
1740039591172330800,8.765330810546875,-0.1988132894039154,0.08244793117046356,-0.1801171600818634
1740039591182370800,8.775370849609375,-0.09290071576833725,0.15059342980384827,-0.21459443867206573
1740039591192411000,8.785410888671874,0.0018459591083228588,0.08112083375453949,-0.17139078676700592
1740039591202450000,8.795449951171875,0.04547519609332085,-0.06207041069865227,-0.10243408381938934
1740039591212489700,8.80548974609375,0.05701861530542374,-0.13538257777690887,-0.060242265462875366
1740039591222529000,8.815529052734375,0.0621020570397377,-0.14754442870616913,-0.04426329955458641
1740039591232568800,8.82556884765625,0.07027460634708405,-0.1492263823747635,-0.0369681753218174
1740039591242609000,8.83560888671875,0.07062747329473495,-0.13596783578395844,-0.017315911129117012
1740039591252648000,8.84564794921875,0.06020241975784302,-0.09181486815214157,-0.010282165370881557
1740039591262688000,8.85568798828125,0.04703149199485779,-0.049214672297239304,-0.013119230978190899
1740039591272726800,8.865726806640625,0.02505709044635296,-0.001845822436735034,-0.017666397616267204
1740039591282766800,8.875766845703126,-0.0019367099739611149,0.08428693562746048,-0.010527261532843113
1740039591292806000,8.885805908203125,-0.022301748394966125,0.16404519975185394,0.019702821969985962
1740039591302846000,8.895845947265625,-0.026913009583950043,0.18979477882385254,0.06515952199697495
1740039591312885800,8.9058857421875,-0.03238547965884209,0.14921031892299652,0.09989023953676224
1740039591322924800,8.9159248046875,-0.049890436232089996,0.12214513123035431,0.12531331181526184
1740039591332964900,8.92596484375,-0.06803453713655472,0.1853763610124588,0.12146114557981491
1740039591343003600,8.936003662109375,-0.09604805707931519,0.26981374621391296,0.12001477926969528
1740039591353043700,8.946043701171876,-0.14158572256565094,0.3124127984046936,0.18365956842899323
1740039591363083800,8.956083740234375,-0.18948400020599365,0.3037593960762024,0.23476003110408783
1740039591373122800,8.966122802734375,-0.2042645663022995,0.21799612045288086,0.22508515417575836
1740039591383162600,8.97616259765625,-0.18409670889377594,0.07817377150058746,0.22105233371257782
1740039591393202000,8.986201904296875,-0.1450386345386505,-0.07172280550003052,0.24192142486572266
1740039591403242000,8.996241943359376,-0.08814552426338196,-0.18925555050373077,0.2470272332429886
1740039591413280800,9.00628076171875,-0.03756903111934662,-0.19866333901882172,0.244582861661911
1740039591423320800,9.01632080078125,-0.03768594563007355,-0.056970398873090744,0.2350170612335205
1740039591433361000,9.02636083984375,-0.08428419381380081,0.06370249390602112,0.2534034550189972
1740039591443400000,9.03639990234375,-0.16056405007839203,0.06301220506429672,0.2712239921092987
1740039591453440000,9.04643994140625,-0.24554620683193207,0.08469068259000778,0.28279468417167664
1740039591463478800,9.056478759765625,-0.31045302748680115,0.11428053677082062,0.30521395802497864
1740039591473518800,9.066518798828126,-0.3865255117416382,0.03531963750720024,0.3125368654727936
1740039591483559000,9.076558837890625,-0.4506208598613739,-0.1399720311164856,0.3096880614757538
1740039591493597700,9.08659765625,-0.4472687542438507,-0.43574899435043335,0.2936640679836273
1740039591503637800,9.0966376953125,-0.3331557512283325,-0.8308404088020325,0.26016417145729065
1740039591513676800,9.1066767578125,-0.10574204474687576,-1.1432833671569824,0.2594403028488159
1740039591523716900,9.116716796875,0.11219774186611176,-0.9484979510307312,0.32372182607650757
1740039591533756000,9.126755859375,0.05778168886899948,-0.25990521907806396,0.24459654092788696
1740039591543795700,9.136795654296876,-0.20897595584392548,0.11350726336240768,0.046861350536346436
1740039591553835800,9.146835693359375,-0.37585291266441345,-0.08247879147529602,-0.03407398238778114
1740039591563874800,9.156874755859375,-0.3967454135417938,-0.46635907888412476,-0.048295263200998306
1740039591573915000,9.166914794921874,-0.38960766792297363,-0.5667489767074585,-0.03043808415532112
1740039591583954000,9.176953857421875,-0.4066351354122162,-0.42844754457473755,-0.019999558106064796
1740039591593994000,9.186993896484376,-0.42128029465675354,-0.27371275424957275,-0.01318372506648302
1740039591604034000,9.197033935546875,-0.4075927138328552,-0.26901814341545105,-0.08281259983778
1740039591614072800,9.20707275390625,-0.39071112871170044,-0.3891543745994568,-0.1691388338804245
1740039591624113000,9.21711279296875,-0.4334269165992737,-0.408903032541275,-0.24897879362106323
1740039591634152000,9.22715185546875,-0.5712976455688477,-0.18494926393032074,-0.3151008188724518
1740039591644191700,9.237191650390624,-0.7197177410125732,0.0919952541589737,-0.36137378215789795
1740039591654230800,9.247230712890625,-0.7863426804542542,0.09688735753297806,-0.4224022924900055
1740039591664270800,9.257270751953126,-0.7913385033607483,-0.013476169668138027,-0.3941158056259155
1740039591674311000,9.267310791015625,-0.78163743019104,0.04155737906694412,-0.253431499004364
1740039591684349700,9.277349609375,-0.7616780996322632,0.16199856996536255,-0.18113042414188385
1740039591694389800,9.2873896484375,-0.7333099842071533,0.23819102346897125,-0.1776789277791977
1740039591704428800,9.2974287109375,-0.6904256343841553,0.26683810353279114,-0.1568508744239807
1740039591714468600,9.307468505859376,-0.6301172971725464,0.26062098145484924,-0.11506614089012146
1740039591724508700,9.3175087890625,-0.5587762594223022,0.1958608776330948,-0.06763231754302979
1740039591734548000,9.3275478515625,-0.4758313000202179,0.10210124403238297,0.021727772429585457
1740039591744587800,9.337587890625,-0.35953691601753235,0.013491212390363216,0.12933306396007538
1740039591754626800,9.347626708984375,-0.2456381618976593,0.016676530241966248,0.19175180792808533
1740039591764667000,9.3576669921875,-0.15775758028030396,0.0778844952583313,0.1910191774368286
1740039591774706000,9.367705810546875,-0.11543691158294678,0.09660404920578003,0.17485058307647705
1740039591784746000,9.37774609375,-0.09641021490097046,0.11198513954877853,0.1588367223739624
1740039591794785800,9.387785888671875,-0.06020713225007057,0.1540178507566452,0.13453857600688934
1740039591804824800,9.397824951171875,-0.012817777693271637,0.17851732671260834,0.09917154163122177
1740039591814865000,9.407864990234375,0.021457670256495476,0.18013332784175873,0.05355926975607872
1740039591824903700,9.417903564453125,0.05795656144618988,0.20805923640727997,-0.0002405766281299293
1740039591834943700,9.42794384765625,0.0837995782494545,0.26824691891670227,-0.04637846350669861
1740039591844982800,9.437982666015625,0.10246460884809494,0.2880485951900482,-0.07129286974668503
1740039591855022800,9.44802294921875,0.12625238299369812,0.33163583278656006,-0.10308487713336945
1740039591865063000,9.45806298828125,0.13884194195270538,0.40858253836631775,-0.1504843384027481
1740039591875101700,9.468101806640625,0.14024172723293304,0.4554940164089203,-0.1793338656425476
1740039591885141800,9.478141845703124,0.15042725205421448,0.4868719279766083,-0.18635955452919006
1740039591895181000,9.48818115234375,0.17352695763111115,0.5067026019096375,-0.18333174288272858
1740039591905220900,9.498220947265626,0.18395429849624634,0.48047131299972534,-0.19102348387241364
1740039591915260700,9.5082607421875,0.18936669826507568,0.42335596680641174,-0.20813284814357758
1740039591925300000,9.518300048828126,0.23170749843120575,0.38934552669525146,-0.19437550008296967
1740039591935340000,9.528340087890625,0.30226168036460876,0.4870682954788208,-0.14156091213226318
1740039591945378800,9.53837890625,0.35308119654655457,0.6591971516609192,-0.08783669024705887
1740039591955419000,9.5484189453125,0.3801242411136627,0.686661958694458,-0.053915899246931076
1740039591965458000,9.5584580078125,0.382194846868515,0.6569253206253052,-0.012151407077908516
1740039591975497700,9.568497802734376,0.4129794239997864,0.6724756360054016,0.061556026339530945
1740039591985537800,9.578537841796875,0.4621991515159607,0.6562004685401917,0.12007366865873337
1740039591995576800,9.588576904296875,0.4934963881969452,0.5457901358604431,0.1352916955947876
1740039592005617000,9.598616943359374,0.5403075218200684,0.49493497610092163,0.17414161562919617
1740039592015655700,9.60865576171875,0.5929180383682251,0.4777579605579376,0.19437113404273987
1740039592025695700,9.61869580078125,0.64716637134552,0.41020849347114563,0.19533972442150116
1740039592035735800,9.62873583984375,0.6905101537704468,0.3238702416419983,0.20826424658298492
1740039592045774800,9.63877490234375,0.7011529803276062,0.2928582727909088,0.2162204384803772
1740039592055814700,9.648814697265625,0.7325903177261353,0.2983104884624481,0.2223028838634491
1740039592065854000,9.65885400390625,0.7837762832641602,0.2870407998561859,0.21616987884044647
1740039592075893800,9.668893798828124,0.7961224913597107,0.3103989064693451,0.16053742170333862
1740039592085933800,9.678933837890625,0.7311171293258667,0.28322190046310425,0.02153666876256466
1740039592095972900,9.688972900390626,0.5956401228904724,0.1619657725095749,-0.14096640050411224
1740039592106013000,9.699012939453125,0.4831433892250061,0.11010125279426575,-0.2325812727212906
1740039592116052000,9.709052001953125,0.4679611027240753,0.21054263412952423,-0.2641020715236664
1740039592126091800,9.719091796875,0.5666978359222412,0.501571536064148,-0.2421642541885376
1740039592136130800,9.729130859375,0.7603650093078613,0.9559413194656372,-0.155129075050354
1740039592146171000,9.7391708984375,0.9586682319641113,1.497515082359314,0.020648878067731857
1740039592156211000,9.7492109375,1.08359956741333,2.142512559890747,0.2552870213985443
1740039592166249700,9.759249755859376,1.071035385131836,2.785273551940918,0.5094814896583557
1740039592176289800,9.769289794921875,0.8577108383178711,3.3473153114318848,0.8878427147865295
1740039592186328800,9.779328857421875,0.48204001784324646,3.5426502227783203,1.277033805847168
1740039592196369000,9.789368896484374,0.10610362887382507,3.1424295902252197,1.4473038911819458
1740039592206408700,9.79940869140625,-0.24274170398712158,2.483499526977539,1.4425759315490723
1740039592216447700,9.80944775390625,-0.7084865570068359,1.7872531414031982,1.3661302328109741
1740039592226487800,9.81948779296875,-1.3011506795883179,1.1897833347320557,1.195130705833435
1740039592236526800,9.82952685546875,-1.6359562873840332,0.7593514919281006,1.0528910160064697
1740039592246566700,9.839566650390625,-1.5858577489852905,-0.03159802034497261,0.817885160446167
1740039592256606000,9.84960595703125,-1.2908588647842407,-0.8477310538291931,0.6137832403182983
1740039592266646000,9.85964599609375,-0.8065226674079895,-1.3246629238128662,0.5025155544281006
1740039592276686000,9.86968603515625,-0.2406361848115921,-1.571882724761963,0.4660749137401581
1740039592286724900,9.879724853515626,0.23045916855335236,-1.6442803144454956,0.46103328466415405
1740039592296765000,9.889764892578125,0.6389798521995544,-1.3514846563339233,0.5006247758865356
1740039592306804000,9.899803955078125,0.9936564564704895,-0.9604368209838867,0.5982687473297119
1740039592316843800,9.90984375,1.2156227827072144,-0.6502187848091125,0.6604576110839844
1740039592326882800,9.9198828125,1.2983062267303467,-0.40361884236335754,0.6380825638771057
1740039592336923000,9.9299228515625,1.3563703298568726,-0.27791890501976013,0.5305904150009155
1740039592346963000,9.939962890625,1.4698028564453125,-0.08202902972698212,0.43028220534324646
1740039592357001700,9.950001708984376,1.5834200382232666,0.15188837051391602,0.38212916254997253
1740039592367041800,9.960041748046875,1.6479636430740356,0.34880250692367554,0.3327152729034424
1740039592377080800,9.970080810546875,1.6483147144317627,0.5253354907035828,0.27995163202285767
1740039592387120600,9.98012060546875,1.613682508468628,0.7101205587387085,0.2548105716705322
1740039592397160700,9.99016064453125,1.5574535131454468,0.8771938681602478,0.26393231749534607
1740039592407199700,10.00019970703125,1.5105464458465576,0.9979365468025208,0.27297401428222656
1740039592417239800,10.01023974609375,1.491798758506775,1.1003077030181885,0.2797684371471405
1740039592427278800,10.02027880859375,1.4550626277923584,1.2362204790115356,0.29750800132751465
1740039592437319000,10.03031884765625,1.376197338104248,1.405928611755371,0.32135912775993347
1740039592447358700,10.040358642578125,1.2625818252563477,1.5489436388015747,0.36383572220802307
1740039592457398000,10.05039794921875,1.1028424501419067,1.5997551679611206,0.39645105600357056
1740039592467437800,10.060437744140625,0.9248812198638916,1.6314659118652344,0.4127005934715271
1740039592477476900,10.070476806640626,0.7184096574783325,1.5685768127441406,0.4227769672870636
1740039592487517000,10.080516845703125,0.49894946813583374,1.525202989578247,0.4232555329799652
1740039592497555700,10.0905556640625,0.2963804304599762,1.6908330917358398,0.39294207096099854
1740039592507595800,10.100595703125,-0.011671417392790318,1.4021331071853638,0.39554956555366516
1740039592517635800,10.1106357421875,-0.3359874188899994,1.0089529752731323,0.266970694065094
1740039592527675000,10.1206748046875,-0.6095177531242371,1.0247522592544556,0.1362566351890564
1740039592537714700,10.130714599609375,-0.6871148943901062,1.3435041904449463,0.03449693322181702
1740039592547753700,10.140753662109375,-0.5708713531494141,1.2722420692443848,-0.06154091656208038
1740039592557793800,10.150793701171875,-0.43887585401535034,0.6849021315574646,-0.09326475858688354
1740039592567832800,10.160832763671875,-0.3797440826892853,0.21650908887386322,-0.023290202021598816
1740039592577872600,10.17087255859375,-0.3733764588832855,0.25987595319747925,0.10847087949514389
1740039592587912700,10.18091259765625,-0.5231464505195618,0.24778975546360016,0.3566090762615204
1740039592597952000,10.190951904296876,-0.7558990716934204,0.3219292461872101,0.5919252038002014
1740039592607991800,10.20099169921875,-1.1712843179702759,0.47660085558891296,0.7420838475227356
1740039592618030800,10.21103076171875,-1.9742342233657837,1.164132833480835,0.6929951310157776
1740039592628071000,10.22107080078125,-3.3176937103271484,2.7205915451049805,0.44812121987342834
1740039592638111000,10.231111083984375,-3.7623448371887207,1.9705712795257568,-0.5802635550498962
1740039592648149800,10.241149658203126,-1.9156129360198975,0.357897013425827,-0.18066474795341492
1740039592658189800,10.25118994140625,-0.9740408658981323,-2.4664793014526367,1.5992337465286255
1740039592668228900,10.261228759765626,-0.9444581866264343,-4.014232158660889,2.4137356281280518
1740039592678269000,10.27126904296875,-0.508277952671051,-1.9016780853271484,2.150869369506836
1740039592688307700,10.2813076171875,0.1142173483967781,0.8343893885612488,1.506047010421753
1740039592698347800,10.29134765625,0.2993563413619995,1.356352686882019,-0.02660640887916088
1740039592708387800,10.301387939453125,-0.1935441941022873,0.21141530573368073,-0.8867771029472351
1740039592718427000,10.311427001953126,-0.9592567086219788,-2.4618890285491943,0.15193621814250946
1740039592728466700,10.321466796875,-0.9672666788101196,-2.2659285068511963,0.99481600522995
1740039592738505700,10.331505615234375,-0.6076201796531677,0.8944846391677856,0.4409334361553192
1740039592748545800,10.3415458984375,-0.7716748714447021,1.1002095937728882,0.5820175409317017
1740039592758585900,10.3515859375,-0.8641220927238464,-0.028438465669751167,0.7540859580039978
1740039592768625000,10.361625,-0.7341603636741638,-0.41161781549453735,0.574745774269104
1740039592778664700,10.371664794921875,-0.6778082847595215,-0.584790825843811,0.5741764307022095
1740039592788704000,10.3817041015625,-0.5403854846954346,-0.2622971832752228,0.5230879187583923
1740039592798743800,10.391743896484375,-0.42005273699760437,-0.03477667644619942,0.4477868378162384
1740039592808782800,10.401782958984375,-0.37512123584747314,-0.14590638875961304,0.43136686086654663
1740039592818823000,10.411822998046874,-0.33011144399642944,-0.17495401203632355,0.33040356636047363
1740039592828863000,10.421863037109375,-0.2839279770851135,-0.13646867871284485,0.21141190826892853
1740039592838901800,10.43190185546875,-0.2901476323604584,-0.19078953564167023,0.14101824164390564
1740039592848941800,10.44194189453125,-0.2992630898952484,-0.20089010894298553,0.11509689688682556
1740039592858980900,10.45198095703125,-0.2943633794784546,-0.13044632971286774,0.12459182739257812
1740039592869021000,10.46202099609375,-0.2975804805755615,-0.019926466047763824,0.1352708339691162
1740039592879060700,10.472060791015625,-0.28572872281074524,0.0699227973818779,0.14407232403755188
1740039592889099800,10.482099853515624,-0.26389533281326294,0.10361684858798981,0.15383228659629822
1740039592899139800,10.492139892578125,-0.24511052668094635,0.10823260247707367,0.1567111611366272
1740039592909178600,10.5021787109375,-0.21998733282089233,0.10238297283649445,0.15672127902507782
1740039592919218700,10.51221875,-0.18567988276481628,0.031408075243234634,0.16782721877098083
1740039592929258000,10.522258056640625,-0.15975214540958405,-0.07833786308765411,0.19194693863391876
1740039592939297800,10.5322978515625,-0.1427714079618454,-0.20561932027339935,0.23148663341999054
1740039592949337600,10.542337646484375,-0.11304201185703278,-0.35380133986473083,0.2479977011680603
1740039592959377000,10.552376953125,-0.0820951908826828,-0.38580095767974854,0.2422993928194046
1740039592969417000,10.5624169921875,-0.0631963387131691,-0.2668692469596863,0.22191928327083588
1740039592979456000,10.5724560546875,-0.07219065725803375,-0.199070006608963,0.19445179402828217
1740039592989495800,10.582495849609375,-0.10542264580726624,-0.23407220840454102,0.1823839396238327
1740039592999535900,10.592535888671875,-0.183242529630661,-0.3126801550388336,0.1873219907283783
1740039593009575000,10.602574951171874,-0.26059991121292114,-0.39481765031814575,0.1785237044095993
1740039593019615000,10.612614990234375,-0.35298892855644226,-0.5005672574043274,0.1575576514005661
1740039593029653800,10.62265380859375,-0.4970156252384186,-0.5691620707511902,0.15782396495342255
1740039593039693800,10.63269384765625,-0.6453645825386047,-0.5060124397277832,0.1623818278312683
1740039593049732900,10.64273291015625,-0.7393877506256104,-0.2848914563655853,0.1822977513074875
1740039593059772700,10.652772705078124,-0.8122479915618896,-0.15098316967487335,0.21182891726493835
1740039593069812700,10.662812744140625,-0.8918370604515076,-0.19442252814769745,0.2396850436925888
1740039593079851800,10.672851806640624,-0.97959965467453,-0.3158905804157257,0.26391682028770447
1740039593089891800,10.682891845703125,-1.0596054792404175,-0.4232436716556549,0.27989739179611206
1740039593099931000,10.692930908203126,-1.1437891721725464,-0.5152021050453186,0.2778526544570923
1740039593109970700,10.702970703125,-1.2515628337860107,-0.5787243247032166,0.2664860188961029
1740039593120010800,10.7130107421875,-1.3813955783843994,-0.640262246131897,0.2412211298942566
1740039593130050300,10.72305029296875,-1.5416409969329834,-0.6751344799995422,0.19681158661842346
1740039593140090000,10.733090087890625,-1.7374706268310547,-0.630868136882782,0.1868521273136139
1740039593150129400,10.74312939453125,-1.9326894283294678,-0.5157389044761658,0.22792552411556244
1740039593160169500,10.75316943359375,-2.129427671432495,-0.4107261896133423,0.24428050220012665
1740039593170208500,10.76320849609375,-2.3234660625457764,-0.2735044062137604,0.24515187740325928
1740039593180248300,10.773248291015625,-2.4919707775115967,-0.19042767584323883,0.17173580825328827
1740039593190288400,10.783288330078125,-2.643974781036377,-0.08054164797067642,0.13018010556697845
1740039593200327400,10.793327392578124,-2.8261210918426514,-0.15544281899929047,0.4180811643600464
1740039593210367500,10.803367431640625,-3.1622304916381836,-0.8148311376571655,0.6926872134208679
1740039593220406300,10.81340625,-3.4938690662384033,-1.6622824668884277,0.7830909490585327
1740039593230446300,10.8234462890625,-3.609015941619873,-2.0868468284606934,0.7520731091499329
1740039593240486400,10.833486328125,-3.517751455307007,-2.028182029724121,0.7619616985321045
1740039593250525200,10.843525146484374,-3.479249954223633,-1.7817208766937256,0.8363943696022034
1740039593260565200,10.853565185546875,-3.7475976943969727,-1.3894269466400146,0.9166668057441711
1740039593270604300,10.863604248046874,-4.046004295349121,-0.9124864935874939,1.2329243421554565
1740039593280644400,10.873644287109375,-3.9724700450897217,-0.7925671935081482,1.3597413301467896
1740039593290683400,10.883683349609376,-3.490694761276245,-1.0870834589004517,1.0012716054916382
1740039593300723200,10.89372314453125,-2.6422855854034424,-1.635730266571045,0.5058338642120361
1740039593310763300,10.90376318359375,-1.6614965200424194,-2.1806371212005615,-0.02950650081038475
1740039593320802600,10.913802490234374,-0.8421295285224915,-2.3892316818237305,-0.3024790585041046
1740039593330842400,10.92384228515625,-0.31227582693099976,-2.2547225952148438,-0.21486158668994904
1740039593340881400,10.93388134765625,0.0484556220471859,-1.896304965019226,0.1469329297542572
1740039593350921500,10.94392138671875,0.34089523553848267,-1.3571593761444092,0.43900635838508606
1740039593360961500,10.95396142578125,0.6510177850723267,-0.7052804231643677,0.5638902187347412
1740039593371000300,10.964000244140625,0.9909088015556335,-0.18298287689685822,0.6468884348869324
1740039593381040400,10.974040283203125,1.3532559871673584,0.10021772980690002,0.7383115291595459
1740039593391079400,10.984079345703124,1.6818666458129883,0.31865257024765015,0.8282099962234497
1740039593401119200,10.994119140625,1.9283002614974976,0.5116366147994995,0.9041525721549988
1740039593411158300,11.004158203125,2.167402982711792,0.502421498298645,0.9318324327468872
1740039593421198300,11.0141982421875,2.4375200271606445,0.30349287390708923,0.900977611541748
1740039593431238400,11.02423828125,2.7313120365142822,0.08395250886678696,0.8405869603157043
1740039593441277200,11.034277099609374,3.033052921295166,-0.06969455629587173,0.7743406295776367
1740039593451317200,11.044317138671875,3.3268351554870605,-0.20397832989692688,0.6943347454071045
1740039593461356300,11.054356201171874,3.621674060821533,-0.4183462858200073,0.5990875959396362
1740039593471396400,11.064396240234375,3.8811309337615967,-0.70162433385849,0.501285970211029
1740039593481436200,11.074436279296876,4.09327507019043,-0.9695807695388794,0.44119545817375183
1740039593491475500,11.084475341796875,4.289183139801025,-1.1764280796051025,0.40681910514831543
1740039593501515300,11.094515380859375,4.485671520233154,-1.2981679439544678,0.37277930974960327
1740039593511554300,11.10455419921875,4.678873538970947,-1.3950952291488647,0.3390333354473114
1740039593521594400,11.114594482421875,4.861881256103516,-1.3970153331756592,0.32750675082206726
1740039593531633400,11.12463330078125,5.032632827758789,-1.308699369430542,0.3275003731250763
1740039593541673500,11.134673583984375,5.187014102935791,-1.173643708229065,0.3029910922050476
1740039593551713300,11.14471337890625,5.296765327453613,-1.041914701461792,0.24208831787109375
1740039593561752300,11.15475244140625,5.340012550354004,-0.9593803286552429,0.13759993016719818
1740039593571792400,11.16479248046875,5.296940803527832,-0.9128096103668213,0.030081190168857574
1740039593581831400,11.17483154296875,5.147969722747803,-0.8983631730079651,-0.08277787268161774
1740039593591871200,11.184871337890625,4.871321678161621,-0.9077833294868469,-0.23203659057617188
1740039593601911300,11.194911376953126,4.491692066192627,-1.011932134628296,-0.37337467074394226
1740039593611950300,11.204950439453125,4.056112766265869,-1.1103894710540771,-0.4713134765625
1740039593621990400,11.214990478515626,3.615783929824829,-1.0955792665481567,-0.5632911920547485
1740039593632029200,11.225029296875,3.1681082248687744,-0.9295459389686584,-0.6545952558517456
1740039593642069200,11.2350693359375,2.705656051635742,-0.7826356887817383,-0.695301353931427
1740039593652108500,11.245108642578124,2.332047462463379,-0.5726404190063477,-0.7425473928451538
1740039593662148400,11.2551484375,1.9827958345413208,-0.32902446389198303,-0.8236262798309326
1740039593672188200,11.265188232421876,1.5750302076339722,-0.10533010214567184,-0.9011163115501404
1740039593682227500,11.2752275390625,1.1633257865905762,0.32759785652160645,-0.8844878673553467
1740039593692267500,11.285267578125,0.7515881061553955,0.5642152428627014,-0.7741419076919556
1740039593702306300,11.295306396484374,0.34853899478912354,0.6111429929733276,-0.547884464263916
1740039593712346400,11.305346435546875,-0.04668503999710083,0.6504033207893372,-0.30476444959640503
1740039593722386400,11.315386474609374,-0.4272257685661316,0.7062626481056213,-0.10859420895576477
1740039593732425500,11.325425537109375,-0.7632488012313843,0.7034053802490234,0.05054377764463425
1740039593742465300,11.33546533203125,-1.0256633758544922,0.5654485821723938,0.18817134201526642
1740039593752504300,11.34550439453125,-1.2819433212280273,0.3614978790283203,0.3121502697467804
1740039593762544400,11.35554443359375,-1.482423186302185,0.2578400671482086,0.4133465588092804
1740039593772583200,11.365583251953124,-1.5740716457366943,0.3870891332626343,0.40235117077827454
1740039593782623200,11.375623291015625,-1.6942534446716309,0.5971062779426575,0.35404345393180847
1740039593792663300,11.385663330078126,-1.5332368612289429,0.5438206791877747,0.5510371923446655
1740039593802702300,11.395702392578125,-0.5004033446311951,-1.8694186210632324,0.5227062702178955
1740039593812742100,11.4057421875,1.0744253396987915,-5.783993244171143,-1.1269108057022095
1740039593822781400,11.415781494140624,0.8634067177772522,-3.7655766010284424,-0.9206660389900208
1740039593832821200,11.4258212890625,-1.4922560453414917,-0.01930680312216282,0.2629146873950958
1740039593842861300,11.435861328125,-2.3608052730560303,3.3120241165161133,1.302854299545288
1740039593852900400,11.445900390625,-1.7537778615951538,2.85003924369812,0.5722846984863281
1740039593862940400,11.4559404296875,-2.063567638397217,0.35703203082084656,-0.004893151111900806
1740039593872979500,11.4659794921875,-2.5583808422088623,-0.5874008536338806,0.16171899437904358
1740039593883019500,11.47601953125,-1.8866616487503052,0.1211715117096901,0.1585058867931366
1740039593893058300,11.486058349609374,-1.0311321020126343,0.4770318865776062,0.22912386059761047
1740039593903098400,11.496098388671875,-0.8633831739425659,-0.4031052887439728,0.3858315348625183
1740039593913138400,11.506138427734374,-0.6915022134780884,-0.6749085783958435,0.40345048904418945
1740039593923177200,11.51617724609375,-0.4556141495704651,-0.41618624329566956,0.2821083962917328
1740039593933217300,11.52621728515625,-0.418525367975235,-0.40907105803489685,0.2522357106208801
1740039593943256300,11.53625634765625,-0.43305015563964844,-0.30854859948158264,0.2815273702144623
1740039593953296400,11.54629638671875,-0.37747451663017273,-0.14067037403583527,0.2928391396999359
1740039593963336200,11.556336181640624,-0.3910354673862457,-0.044522516429424286,0.2790849208831787
1740039593973375200,11.566375244140625,-0.40011686086654663,0.0028026539366692305,0.23527485132217407
1740039593983415300,11.576415283203126,-0.3514425456523895,0.009716947562992573,0.18004630506038666
1740039593993454300,11.586454345703125,-0.2941824793815613,-0.038317158818244934,0.12751784920692444
1740039594003494100,11.596494140625,-0.2107236385345459,-0.13848726451396942,0.11565566807985306
1740039594013533400,11.606533447265624,-0.12644895911216736,-0.21640948951244354,0.11709990352392197
1740039594023573500,11.616573486328125,-0.06885798275470734,-0.25355926156044006,0.1258026659488678
1740039594033613600,11.626613525390624,-0.04548528417944908,-0.2261635959148407,0.12137222290039062
1740039594043652400,11.63665234375,-0.03630177304148674,-0.2836418151855469,0.1337355077266693
1740039594053692400,11.6466923828125,-0.027133040130138397,-0.2923460900783539,0.13892467319965363
1740039594063731500,11.6567314453125,-0.04699752852320671,-0.25372353196144104,0.1447112113237381
1740039594073771300,11.666771240234375,-0.07847768813371658,-0.18772399425506592,0.13340076804161072
1740039594083811300,11.676811279296874,-0.1046789139509201,-0.1812775731086731,0.12769027054309845
1740039594093850400,11.686850341796875,-0.13415664434432983,-0.2301526963710785,0.13816633820533752
1740039594103890400,11.696890380859376,-0.17275269329547882,-0.24535086750984192,0.1201423779129982
1740039594113929200,11.70692919921875,-0.2206840068101883,-0.24922895431518555,0.10672297328710556
1740039594123969300,11.71696923828125,-0.2614573538303375,-0.29247143864631653,0.11932489275932312
1740039594134007800,11.7270078125,-0.3192913830280304,-0.34055161476135254,0.12416359037160873
1740039594144047600,11.737047607421875,-0.4153183698654175,-0.3582398593425751,0.12210748344659805
1740039594154087400,11.74708740234375,-0.5257574915885925,-0.3738963305950165,0.13329169154167175
1740039594164126700,11.757126708984375,-0.6324496269226074,-0.3825509548187256,0.16930679976940155
1740039594174166800,11.767166748046876,-0.7373584508895874,-0.36598822474479675,0.19406354427337646
1740039594184205600,11.77720556640625,-0.8234474658966064,-0.3690243661403656,0.23456540703773499
1740039594194245600,11.78724560546875,-0.8754501938819885,-0.4137473702430725,0.28745684027671814
1740039594204285700,11.79728564453125,-0.924456775188446,-0.5167254209518433,0.33767229318618774
1740039594214324500,11.807324462890625,-0.9532900452613831,-0.6967889070510864,0.3665849268436432
1740039594224364500,11.817364501953126,-1.002968192100525,-0.8987692594528198,0.3720884323120117
1740039594234403600,11.827403564453125,-1.0729576349258423,-1.0058821439743042,0.4102608561515808
1740039594244443600,11.837443603515625,-1.1410001516342163,-0.9950961470603943,0.44160234928131104
1740039594254482400,11.847482421875,-1.2194726467132568,-0.830435037612915,0.4678475260734558
1740039594264522500,11.8575224609375,-1.2980320453643799,-0.642088770866394,0.4991210699081421
1740039594274562600,11.8675625,-1.3875091075897217,-0.48148149251937866,0.5289122462272644
1740039594284601600,11.8776015625,-1.5175909996032715,-0.40084391832351685,0.5734367370605469
1740039594294641400,11.887641357421876,-1.699933409690857,-0.38012266159057617,0.6185448169708252
1740039594304680700,11.8976806640625,-1.9057203531265259,-0.3631868064403534,0.665864884853363
1740039594314720500,11.907720458984375,-2.1146914958953857,-0.42738816142082214,0.7106097340583801
1740039594324760600,11.917760498046874,-2.3356103897094727,-0.596394419670105,0.7322983741760254
1740039594334799600,11.927799560546875,-2.5542805194854736,-0.7664660215377808,0.7497529983520508
1740039594344839700,11.937839599609376,-2.763582944869995,-0.8358635902404785,0.7804610133171082
1740039594354878700,11.947878662109375,-2.9340548515319824,-0.8573611974716187,0.7637726068496704
1740039594364918500,11.95791845703125,-3.0371580123901367,-0.8852609992027283,0.7705469727516174
1740039594374957600,11.96795751953125,-3.106229543685913,-1.2423328161239624,0.9981212615966797
1740039594384997600,11.97799755859375,-3.2356696128845215,-2.054689884185791,1.083782434463501
1740039594395037700,11.98803759765625,-3.409971237182617,-2.6973562240600586,0.9524672031402588
1740039594405076500,11.998076416015625,-3.565218448638916,-2.720273971557617,0.947739839553833
1740039594415116500,12.008116455078126,-3.7645630836486816,-1.983097791671753,1.1806210279464722
1740039594425155600,12.018155517578125,-4.009512901306152,-1.0344904661178589,1.6410138607025146
1740039594435195600,12.028195556640625,-4.097587585449219,-0.26968690752983093,2.0977513790130615
1740039594445235500,12.0382353515625,-3.948537826538086,-0.003875616705045104,1.8597463369369507
1740039594455274500,12.0482744140625,-3.6963467597961426,-0.4693889617919922,0.9728662371635437
1740039594465314600,12.058314453125,-3.4790380001068115,-1.6103595495224,-0.17174449563026428
1740039594475353600,12.068353515625,-3.0813350677490234,-2.878666639328003,-1.4289860725402832
1740039594485393400,12.078393310546875,-2.3050196170806885,-3.5029540061950684,-2.4103920459747314
1740039594495432700,12.0884326171875,-1.368133306503296,-3.0728418827056885,-2.831549882888794
1740039594505472800,12.09847265625,-0.5901244878768921,-2.19338321685791,-2.2939341068267822
1740039594515512800,12.108512939453124,-0.03581337258219719,-1.8566304445266724,-1.1100215911865234
1740039594525551600,12.118551513671875,0.42128390073776245,-1.9101403951644897,0.00459515955299139
1740039594535591700,12.128591796875,0.9445191621780396,-1.292284369468689,0.6095036864280701
1740039594545630700,12.138630615234375,1.5175485610961914,-0.0070256516337394714,0.7708609104156494
1740039594555670500,12.14867041015625,2.151123523712158,1.3158698081970215,0.6268704533576965
1740039594565710600,12.158710693359374,2.7479567527770996,2.1067585945129395,0.442552775144577
1740039594575749600,12.16874951171875,3.126190662384033,2.212477445602417,0.3347408175468445
1740039594585789700,12.178789794921874,3.175337553024292,1.823953628540039,0.2162914276123047
1740039594595828500,12.188828369140625,2.9233739376068115,1.3411717414855957,0.03085179626941681
1740039594605868500,12.19886865234375,2.6295883655548096,0.7539631724357605,-0.126016765832901
1740039594615907600,12.208907470703124,2.552152395248413,0.1974261999130249,-0.276202529668808
1740039594625947400,12.218947509765625,2.7467527389526367,-0.01610325090587139,-0.5195141434669495
1740039594635987500,12.228987548828124,3.1646435260772705,0.17514872550964355,-0.7286279797554016
1740039594646026500,12.239026611328125,3.6840102672576904,0.33113008737564087,-0.8445351123809814
1740039594656066600,12.249066650390626,4.177741050720215,0.1578506976366043,-0.8744668960571289
1740039594666105600,12.259105712890625,4.513535976409912,-0.2014809250831604,-0.8315023183822632
1740039594676145700,12.269145751953126,4.711990833282471,-0.4517541229724884,-0.7814447283744812
1740039594686185500,12.279185546875,4.904714107513428,-0.38802847266197205,-0.7853922247886658
1740039594696224800,12.289224853515625,5.085752010345459,-0.04386604577302933,-0.8355537056922913
1740039594706264600,12.2992646484375,5.162001609802246,0.4125983715057373,-0.8938463926315308
1740039594716303600,12.3093037109375,5.087067127227783,0.8498039245605469,-0.9318462610244751
1740039594726343700,12.31934375,4.920844078063965,1.1451209783554077,-0.9614872336387634
1740039594736382500,12.329382568359375,4.784090042114258,1.298731803894043,-0.9928203821182251
1740039594746422500,12.339422607421875,4.69249963760376,1.3669487237930298,-1.0181984901428223
1740039594756462600,12.349462646484374,4.5593180656433105,1.3270697593688965,-1.0742617845535278
1740039594766501600,12.359501708984375,4.342301368713379,1.1469210386276245,-1.1595687866210938
1740039594776541400,12.36954150390625,4.056783676147461,0.8746819496154785,-1.2303050756454468
1740039594786580500,12.37958056640625,3.752458095550537,0.5986253619194031,-1.2857571840286255
1740039594796620500,12.38962060546875,3.463564157485962,0.44076064229011536,-1.3170297145843506
1740039594806660600,12.39966064453125,3.1867096424102783,0.36449286341667175,-1.2961461544036865
1740039594816699400,12.409699462890625,2.8552064895629883,0.31575408577919006,-1.1874181032180786
1740039594826739500,12.419739501953124,2.4965500831604004,0.5115821957588196,-1.0803569555282593
1740039594836778800,12.42977880859375,1.9714809656143188,0.40915539860725403,-0.8440027832984924
1740039594846818600,12.439818603515626,1.4007540941238403,0.49585089087486267,-0.6136957406997681
