time,seconds_elapsed,z,y,x
1740033505247786800,0.012786865234375,0.00447038235142827,-0.03906058520078659,-0.0857793539762497
1740033505257825500,0.022825439453125,0.00213558878749609,-0.026203906163573265,-0.0619903989136219
1740033505267865600,0.032865478515625,0.002445580903440714,-0.02358335629105568,-0.03459739312529564
1740033505277904600,0.042904541015625,0.002703641075640917,-0.01816621981561184,-0.011905129067599773
1740033505287944000,0.05294384765625,0.007910653948783875,-0.008730640634894371,0.0011776498286053538
1740033505297983000,0.06298291015625,0.01955559104681015,-0.005638711154460907,0.010130397975444794
1740033505308021800,0.073021728515625,0.018814433366060257,-0.005781722720712423,0.028979720547795296
1740033505318060800,0.083060791015625,0.018142251297831535,-0.00123783724848181,0.047619182616472244
1740033505328099800,0.093099853515625,0.021330589428544044,0.004972388036549091,0.05206852778792381
1740033505338139600,0.1031396484375,0.02118091844022274,0.014859107322990894,0.0531843900680542
1740033505348179000,0.113178955078125,0.02262861281633377,0.0085466168820858,0.05001283437013626
1740033505358217700,0.1232177734375,0.015331818722188473,-0.011051852256059647,0.03948668763041496
1740033505368256800,0.1332568359375,0.011261176317930222,-0.01619548164308071,0.013890515081584454
1740033505378295800,0.1432958984375,0.009380985051393509,-0.014435664750635624,-0.008889098651707172
1740033505388334800,0.1533349609375,0.012426042929291725,-0.0041044638492167,-0.022720757871866226
1740033505398375000,0.163375,0.01549214031547308,-0.0010327738709747791,-0.029559489339590073
1740033505408414000,0.1734140625,0.012537362985312939,-0.005047223065048456,-0.03007880598306656
1740033505418452700,0.18345263671875,0.012705408968031406,0.005923935677856207,-0.03287379443645477
1740033505428491800,0.19349169921875,0.010960505343973637,0.02082671783864498,-0.023267239332199097
1740033505438530800,0.20353076171875,0.013499030843377113,0.043228164315223694,-0.00333214714191854
1740033505448569900,0.21356982421875,0.014507570303976536,0.05555220693349838,0.018811238929629326
1740033505458609000,0.22360888671875,0.012064652517437935,0.05621640011668205,0.03797294944524765
1740033505468649000,0.23364892578125,0.010702178813517094,0.0561349093914032,0.04639599472284317
1740033505478687700,0.243687744140625,0.01618722639977932,0.06009689345955849,0.04633580520749092
1740033505488726800,0.253726806640625,0.01188036147505045,0.05300809070467949,0.04272988811135292
1740033505498765800,0.263765869140625,0.007931958884000778,0.0345422625541687,0.037940192967653275
1740033505508804900,0.273804931640625,0.006047772243618965,0.0005877596559002995,0.025365278124809265
1740033505518844000,0.283843994140625,0.007366569712758064,-0.03373825550079346,0.010267018340528011
1740033505528882700,0.293882568359375,0.007532218471169472,-0.051607001572847366,0.0012753878254443407
1740033505538922800,0.3039228515625,0.009526127018034458,-0.043411388993263245,-0.0002426139690214768
1740033505548961800,0.3139619140625,0.009190035983920097,-0.013197827152907848,-0.00012889699428342283
1740033505559000800,0.324000732421875,0.009035573340952396,0.013011938892304897,0.0032357405871152878
1740033505569040000,0.334039794921875,0.004304200876504183,0.02040194347500801,0.0030895331874489784
1740033505579079000,0.344078857421875,0.0019286612514406443,0.007424360606819391,-0.00615163566544652
1740033505589117700,0.35411767578125,0.0029473204631358385,-0.01673237420618534,-0.019344136118888855
1740033505599157800,0.36415771484375,0.0012266519479453564,-0.039630234241485596,-0.02546115219593048
1740033505609196800,0.37419677734375,0.004501008428633213,-0.048830121755599976,-0.022232601419091225
1740033505619235800,0.38423583984375,0.007964183576405048,-0.02316071279346943,-0.015112906694412231
1740033505629275000,0.39427490234375,0.010457701049745083,0.01901230774819851,-0.0031558459158986807
1740033505639313700,0.404313720703125,0.014082263223826885,0.04380207508802414,0.010427873581647873
1740033505649352700,0.414352783203125,0.013624732382595539,0.045101962983608246,0.02045414224267006
1740033505659392000,0.42439208984375,0.012294749729335308,0.03190839663147926,0.021338045597076416
1740033505669431800,0.434431884765625,0.010869958437979221,0.007762848399579525,0.01902136206626892
1740033505679470800,0.444470947265625,0.0076238312758505344,-0.00743234995752573,0.02189917303621769
1740033505689510000,0.454510009765625,0.006216883193701506,-0.00010839065362233669,0.020441358909010887
1740033505699548700,0.464548583984375,0.020871726796030998,0.004414722323417664,0.01907968521118164
1740033505709587700,0.474587646484375,0.01763172447681427,0.017003484070301056,0.02353701740503311
1740033505719627000,0.484626953125,0.011122692376375198,0.005360410548746586,0.02130209282040596
1740033505729666800,0.494666748046875,0.009424393996596336,-0.011263307183980942,0.01726793684065342
1740033505739705900,0.504705810546875,0.011627627536654472,-0.02816931903362274,0.012977317906916142
1740033505749745000,0.514744873046875,0.013467871583998203,-0.02094283141195774,0.010754643008112907
1740033505759783700,0.52478369140625,0.02010713331401348,0.016995495185256004,0.013914483599364758
1740033505769822700,0.53482275390625,0.02636715956032276,0.058875299990177155,0.016889501363039017
1740033505779862000,0.544862060546875,0.02930089645087719,0.07242439687252045,0.019058646634221077
1740033505789900800,0.55490087890625,0.02646969072520733,0.06302237510681152,0.01888953521847725
1740033505799940900,0.56494091796875,0.016598151996731758,0.026256371289491653,0.022069882601499557
1740033505809980000,0.57497998046875,0.004564125556498766,0.003197923768311739,0.04452246055006981
1740033505820018700,0.585018798828125,-0.0012277172645553946,0.04513285681605339,0.07890386879444122
1740033505830058000,0.59505810546875,0.00743208359926939,0.13684120774269104,0.11623526364564896
1740033505840096800,0.6050966796875,0.024417990818619728,0.21470804512500763,0.15238182246685028
1740033505850135800,0.6151357421875,0.03623709827661514,0.2517768442630768,0.17024922370910645
1740033505860176000,0.62517578125,0.0443916991353035,0.23856143653392792,0.17219120264053345
1740033505870214700,0.635214599609375,0.04475602135062218,0.1978992372751236,0.1660081446170807
1740033505880253700,0.645253662109375,0.04417305439710617,0.15527720749378204,0.15113092958927155
1740033505890293000,0.65529296875,0.04495469108223915,0.12285428494215012,0.13094043731689453
1740033505900331800,0.665331787109375,0.04531075432896614,0.10540631413459778,0.11408955603837967
1740033505910370800,0.675370849609375,0.04187953844666481,0.08041495084762573,0.11065753549337387
1740033505920411000,0.685410888671875,0.03111557476222515,0.03305515646934509,0.1000208705663681
1740033505930449700,0.69544970703125,0.022840600460767746,-0.018544655293226242,0.08947049081325531
1740033505940488700,0.70548876953125,0.012027900665998459,-0.04772677645087242,0.09599444270133972
1740033505950528000,0.715528076171875,0.010245447047054768,-0.025652898475527763,0.1172344833612442
1740033505960566800,0.72556689453125,0.012717393226921558,0.033241044729948044,0.13409176468849182
1740033505970605800,0.735605712890625,0.018255969509482384,0.07713872939348221,0.15465456247329712
1740033505980644600,0.74564453125,0.01386974286288023,0.0961582213640213,0.1813250482082367
1740033505990684700,0.7556845703125,0.009350092150270939,0.0907520055770874,0.2129165381193161
1740033506000723700,0.7657236328125,0.011691543273627758,0.08942042291164398,0.24346564710140228
1740033506010763000,0.775762939453125,0.005372128449380398,0.12123587727546692,0.2738105058670044
1740033506020801800,0.7858017578125,0.016946226358413696,0.1775103360414505,0.3074033558368683
1740033506030840800,0.7958408203125,0.031313180923461914,0.22454895079135895,0.3358509838581085
1740033506040879600,0.805879638671875,0.03226073458790779,0.2433423548936844,0.3433555066585541
1740033506050919700,0.815919677734375,0.034213364124298096,0.22519263625144958,0.3396981656551361
1740033506060959000,0.825958984375,0.04012345150113106,0.2421623021364212,0.29344120621681213
1740033506070997800,0.835997802734375,0.04823703691363335,0.24321292340755463,0.2400730550289154
1740033506081036800,0.846036865234375,0.05305496230721474,0.2659669518470764,0.16915014386177063
1740033506091075800,0.856075927734375,0.041912030428647995,0.3148548901081085,0.12851190567016602
1740033506101114600,0.866114501953125,0.023875238373875618,0.39175790548324585,0.12641413509845734
1740033506111154000,0.87615380859375,0.014733139425516129,0.39107081294059753,0.1809103935956955
1740033506121194000,0.886194091796875,0.022341525182127953,0.3773358464241028,0.21385397017002106
1740033506131232800,0.896232666015625,0.030358703806996346,0.3575908839702606,0.21925058960914612
1740033506141271800,0.906271728515625,0.0285328421741724,0.308170348405838,0.19735461473464966
1740033506151310800,0.916310791015625,0.021638981997966766,0.2332891821861267,0.15213467180728912
1740033506161350000,0.926349853515625,0.011593539267778397,0.14736256003379822,0.0930042415857315
1740033506171389000,0.936388916015625,0.0032655680552124977,0.05919354781508446,0.026032665744423866
1740033506181429000,0.946428955078125,-0.00079735042527318,-0.034804053604602814,-0.03507143259048462
1740033506191467800,0.9564677734375,-0.003549993736669421,-0.09704559296369553,-0.06584931910037994
1740033506201506800,0.9665068359375,0.0007928230334073305,-0.09602027386426926,-0.07085393369197845
1740033506211545600,0.976545654296875,0.0064866612665355206,-0.04367530718445778,-0.0630870908498764
1740033506221585000,0.9865849609375,0.009635583497583866,0.02021206170320511,-0.0529436431825161
1740033506231624000,0.9966240234375,0.01691320352256298,0.06228707730770111,-0.045824214816093445
1740033506241664000,1.0066640625,0.025261148810386658,0.08265253901481628,-0.04500875249505043
1740033506251702800,1.016702880859375,0.030158700421452522,0.1361815333366394,-0.026687270030379295
1740033506261741800,1.026741943359375,0.021891983225941658,0.15967142581939697,0.0010673949727788568
1740033506271780600,1.036780517578125,0.014873487874865532,0.22577108442783356,0.05325203761458397
1740033506281819400,1.0468193359375,0.0009137305896729231,0.2955869138240814,0.1260596662759781
1740033506291858400,1.0568583984375,-0.013371732085943222,0.3168884813785553,0.19772213697433472
1740033506301897500,1.0668974609375,-0.01865118183195591,0.2920054793357849,0.24393010139465332
1740033506311937300,1.076937255859375,-0.022286929190158844,0.26054662466049194,0.2925298810005188
1740033506321976300,1.086976318359375,-0.01209900714457035,0.2652077078819275,0.35229626297950745
1740033506332015600,1.097015625,0.04339274764060974,0.2826777696609497,0.41507095098495483
1740033506342054400,1.107054443359375,0.07156233489513397,0.31187665462493896,0.4771638810634613
1740033506352093400,1.117093505859375,0.0796295776963234,0.3052629828453064,0.5356977581977844
1740033506362132500,1.127132568359375,0.09042949974536896,0.2634508013725281,0.5806937217712402
1740033506372172300,1.13717236328125,0.0864504724740982,0.19887635111808777,0.6112316846847534
1740033506382211300,1.14721142578125,0.07620049268007278,0.1593712866306305,0.6065099239349365
1740033506392250600,1.157250732421875,0.06795375049114227,0.14067669212818146,0.5700067281723022
1740033506402289400,1.167289306640625,0.06542454659938812,0.13737542927265167,0.5115391612052917
1740033506412328400,1.177328369140625,0.06842593103647232,0.1687898188829422,0.44134223461151123
1740033506422367200,1.1873671875,0.09465406835079193,0.3105147182941437,0.38087785243988037
1740033506432407300,1.1974072265625,0.13860660791397095,0.528996467590332,0.32957977056503296
1740033506442446600,1.207446533203125,0.1765470653772354,0.7216306328773499,0.27515673637390137
1740033506452485400,1.2174853515625,0.15980671346187592,0.7874202728271484,0.22222694754600525
1740033506462524400,1.2275244140625,0.12193469703197479,0.7551443576812744,0.19043385982513428
1740033506472563500,1.2375634765625,0.07849746942520142,0.6504576206207275,0.16978158056735992
1740033506482602200,1.247602294921875,0.04380713403224945,0.5418906807899475,0.15304628014564514
1740033506492642300,1.257642333984375,-0.01125158928334713,0.42675265669822693,0.13012045621871948
1740033506502681600,1.267681640625,-0.06989786028862,0.32026907801628113,0.10055563598871231
1740033506512720400,1.277720458984375,-0.08604326844215393,0.23106516897678375,0.08302697539329529
1740033506522759400,1.287759521484375,-0.08079630881547928,0.1444336175918579,0.09470760077238083
1740033506532798500,1.297798583984375,-0.06896921247243881,0.09240183234214783,0.11226209253072739
1740033506542837500,1.30783740234375,-0.03158029541373253,0.22734394669532776,0.09415899217128754
1740033506552876500,1.31787646484375,0.02586808241903782,0.4557041525840759,0.01972843147814274
1740033506562916600,1.32791650390625,0.06278668344020844,0.6631457209587097,-0.07535866647958755
1740033506572955400,1.337955322265625,0.05622332543134689,0.6979168057441711,-0.1541200578212738
1740033506582994400,1.347994384765625,-0.001609614584594965,0.5972245335578918,-0.1747763305902481
1740033506593033500,1.358033447265625,-0.04321165382862091,0.47584643959999084,-0.16764172911643982
1740033506603072500,1.368072509765625,-0.07955208420753479,0.3508317768573761,-0.16299957036972046
1740033506613111600,1.378111572265625,-0.08847606927156448,0.24231703579425812,-0.18472164869308472
1740033506623151600,1.388151611328125,-0.08720121532678604,0.1371575891971588,-0.21685215830802917
1740033506633190400,1.3981904296875,-0.08327970653772354,0.016034893691539764,-0.2164580076932907
1740033506643229400,1.4082294921875,-0.0866834968328476,-0.12623968720436096,-0.18980136513710022
1740033506653268200,1.418268310546875,-0.0951819121837616,-0.17551110684871674,-0.14819559454917908
1740033506663307500,1.4283076171875,-0.10290161520242691,0.05204802006483078,-0.11580809205770493
1740033506673346600,1.4383466796875,-0.10330455005168915,0.4309346079826355,-0.08105356991291046
1740033506683386400,1.448386474609375,-0.10566570609807968,0.673656702041626,-0.029686789959669113
1740033506693425400,1.45842529296875,-0.10294156521558762,0.7113583087921143,0.019957462325692177
1740033506703464400,1.46846435546875,-0.12234774976968765,0.6007276177406311,0.07258578389883041
1740033506713503500,1.47850341796875,-0.14337660372257233,0.519588053226471,0.08952774852514267
1740033506723542500,1.48854248046875,-0.14138641953468323,0.4997349977493286,0.06317337602376938
1740033506733581600,1.49858154296875,-0.11833276599645615,0.41651493310928345,0.05245335400104523
1740033506743621400,1.508621337890625,-0.09898383915424347,0.25796258449554443,0.11505921185016632
1740033506753660400,1.518660400390625,-0.07165660709142685,0.1192755252122879,0.22271670401096344
1740033506763699500,1.528699462890625,-0.04309074580669403,-0.0015984292840585113,0.2863776981830597
1740033506773738500,1.538738525390625,-0.019036807119846344,-0.08688989281654358,0.2716759741306305
1740033506783777500,1.548777587890625,0.00672421557828784,-0.10694189369678497,0.2263101041316986
1740033506793816300,1.55881640625,0.027873177081346512,-0.12375123798847198,0.1668640822172165
1740033506803856400,1.5688564453125,0.0369846485555172,-0.14968350529670715,0.1119808629155159
1740033506813895400,1.5788955078125,0.047577906399965286,-0.1941889226436615,0.05200487747788429
1740033506823934500,1.5889345703125,0.06299654394388199,-0.26345905661582947,-0.016035690903663635
1740033506833973500,1.598973388671875,0.08208315074443817,-0.3409581184387207,-0.09363275021314621
1740033506844012500,1.609012451171875,0.12101190537214279,-0.40683886408805847,-0.15369582176208496
1740033506854051300,1.61905126953125,0.18766656517982483,-0.4094884395599365,-0.21411442756652832
1740033506864091400,1.62909130859375,0.27987053990364075,-0.3526880145072937,-0.27666568756103516
1740033506874130400,1.63913037109375,0.3835279643535614,-0.2534322738647461,-0.3506653308868408
1740033506884169200,1.649169189453125,0.4258391857147217,-0.10749636590480804,-0.4447915852069855
1740033506894208500,1.65920849609375,0.4263100326061249,0.04894410818815231,-0.5274065732955933
1740033506904247600,1.66924755859375,0.3714960515499115,0.15785300731658936,-0.5747144222259521
1740033506914287400,1.679287353515625,0.30127090215682983,0.181282177567482,-0.5912622213363647
1740033506924326400,1.689326416015625,0.2729305922985077,0.1725885570049286,-0.5826690196990967
1740033506934365400,1.699365478515625,0.2346561849117279,0.19714289903640747,-0.5270918011665344
1740033506944404500,1.709404541015625,0.22312256693840027,0.17775322496891022,-0.47181546688079834
1740033506954443500,1.719443603515625,0.21856509149074554,0.1662749946117401,-0.38316601514816284
1740033506964482600,1.729482666015625,0.2005099356174469,0.14362241327762604,-0.259977251291275
1740033506974522400,1.7395224609375,0.17456941306591034,0.13130609691143036,-0.12226518988609314
1740033506984561400,1.7495615234375,0.1448485255241394,0.14154887199401855,0.0020058928057551384
1740033506994600400,1.759600341796875,0.10327046364545822,0.07517491281032562,0.10228881984949112
1740033507004639500,1.769639404296875,0.10336180776357651,0.01618482917547226,0.1545938402414322
1740033507014678500,1.779678466796875,0.10648036748170853,-0.014152037911117077,0.16503556072711945
1740033507024717300,1.78971728515625,0.11038882285356522,-0.0648314580321312,0.15502341091632843
1740033507034757400,1.79975732421875,0.11963239312171936,-0.18352748453617096,0.1774035394191742
1740033507044796400,1.80979638671875,0.15923573076725006,-0.3385807275772095,0.2441421002149582
1740033507054835500,1.81983544921875,0.10723617672920227,-0.4748581349849701,0.2534562349319458
1740033507064874500,1.82987451171875,0.11806724965572357,-0.4858527183532715,0.23282845318317413
1740033507074913500,1.83991357421875,0.12689776718616486,-0.42731964588165283,0.21959787607192993
1740033507084952300,1.849952392578125,0.13956321775913239,-0.35220518708229065,0.24569551646709442
1740033507094992400,1.859992431640625,0.14186525344848633,-0.3007878065109253,0.2886749505996704
1740033507105031400,1.870031494140625,0.11979031562805176,-0.2689398527145386,0.31837716698646545
1740033507115070500,1.880070556640625,0.07667373865842819,-0.2621985971927643,0.31980782747268677
1740033507125109500,1.890109619140625,0.05052975192666054,-0.25686827301979065,0.2919794023036957
1740033507135148500,1.9001484375,0.05405711010098457,-0.2350202351808548,0.2402682602405548
1740033507145188400,1.910188232421875,0.060153085738420486,-0.21051862835884094,0.17255578935146332
1740033507155227400,1.920227294921875,0.06613054871559143,-0.18711157143115997,0.10864578932523727
1740033507165266400,1.930266357421875,0.0664040595293045,-0.16366642713546753,0.047215983271598816
1740033507175305500,1.940305419921875,0.07091039419174194,-0.18397410213947296,0.00663553224876523
1740033507185344500,1.950344482421875,0.07307607680559158,-0.22536201775074005,-0.011929630301892757
1740033507195383600,1.960383544921875,0.08689761161804199,-0.2967642843723297,0.0001549959706608206
1740033507205423400,1.97042333984375,0.08035396039485931,-0.21740636229515076,0.0012213257141411304
1740033507215462400,1.98046240234375,0.05536765232682228,-0.10482947528362274,-0.011752796359360218
1740033507225501400,1.99050146484375,0.034935612231492996,-0.07692115008831024,-0.021458687260746956
1740033507235540500,2.00054052734375,0.02346164919435978,-0.09627753496170044,-0.04513738304376602
1740033507245579500,2.01057958984375,0.009572465904057026,-0.12495338916778564,-0.0798141360282898
1740033507255618300,2.020618408203125,-0.0157169122248888,-0.18460792303085327,-0.12304496765136719
1740033507265658400,2.030658447265625,-0.05216626450419426,-0.4579148292541504,-0.15150590240955353
1740033507275697400,2.040697509765625,-0.06461787223815918,-0.646823525428772,-0.16025598347187042
1740033507285736700,2.05073681640625,-0.0848270058631897,-0.7865526080131531,-0.16270768642425537
1740033507295776000,2.06077587890625,-0.09147346019744873,-0.8667076826095581,-0.18583910167217255
1740033507305814800,2.070814697265625,-0.09422024339437485,-0.9062910079956055,-0.21868573129177094
1740033507315854800,2.080854736328125,-0.09514089673757553,-0.8530275225639343,-0.2545209527015686
1740033507325894000,2.090893798828125,-0.11322695761919022,-0.6688838005065918,-0.3046533763408661
1740033507335932700,2.1009326171875,-0.13189731538295746,-0.4657767415046692,-0.3225378394126892
1740033507345971700,2.1109716796875,-0.13200250267982483,-0.3495228588581085,-0.2850746214389801
1740033507356010800,2.1210107421875,-0.1271694004535675,-0.2602725923061371,-0.22725258767604828
1740033507366049800,2.1310498046875,-0.11437051743268967,-0.20979370176792145,-0.17241917550563812
1740033507376089900,2.14108984375,-0.08832506835460663,-0.18666335940361023,-0.15405641496181488
1740033507386128600,2.151128662109375,-0.07596667110919952,-0.19388744235038757,-0.1603209674358368
1740033507396167700,2.161167724609375,-0.07171120494604111,-0.2148667573928833,-0.17559047043323517
1740033507406206700,2.171206787109375,-0.1031293123960495,-0.25519129633903503,-0.19597163796424866
1740033507416245800,2.181245849609375,-0.1198425143957138,-0.2340596318244934,-0.20949037373065948
1740033507426285800,2.191285888671875,-0.119417205452919,-0.1826864629983902,-0.22692981362342834
1740033507436324900,2.201324951171875,-0.09988052397966385,-0.12656646966934204,-0.2508290410041809
1740033507446363600,2.21136376953125,-0.05694131180644035,-0.06945950537919998,-0.28534945845603943
1740033507456402700,2.221402587890625,-0.022816099226474762,-0.03894872963428497,-0.3232837915420532
1740033507466442000,2.23144189453125,-0.025299496948719025,-0.08122561126947403,-0.29916912317276
1740033507476480800,2.241480712890625,-0.03690528869628906,-0.11773861944675446,-0.20688766241073608
1740033507486520800,2.251520751953125,-0.03236646205186844,-0.08606085181236267,-0.11399288475513458
1740033507496559900,2.261559814453125,-0.02618340030312538,-0.05548989027738571,-0.06251983344554901
1740033507506598700,2.2715986328125,-0.021034978330135345,0.021037107333540916,-0.08211777359247208
1740033507516637700,2.2816376953125,-0.011180482804775238,0.06612682342529297,-0.10253036767244339
1740033507526677000,2.291677001953125,-0.018210163339972496,0.07347075641155243,-0.07956700026988983
1740033507536716800,2.301716796875,-0.03149108216166496,0.08606457710266113,-0.03545652702450752
1740033507546755800,2.311755859375,-0.016918528825044632,0.04114876687526703,-0.008717591874301434
1740033507556795000,2.321794921875,0.004818457178771496,-0.07006483525037766,-0.027480626478791237
1740033507566833700,2.331833740234375,0.0165555402636528,-0.1993139088153839,-0.08438785374164581
1740033507576872700,2.341872802734375,-0.004114584065973759,-0.22956262528896332,-0.16772562265396118
1740033507586911700,2.351911865234375,-0.04447825253009796,-0.16899727284908295,-0.26490622758865356
1740033507596951800,2.361951904296875,-0.09820699691772461,-0.23310010135173798,-0.33888351917266846
1740033507606990800,2.371990966796875,-0.0805952399969101,-0.4167223870754242,-0.41566964983940125
1740033507617029600,2.382029541015625,-0.03543788567185402,-0.507105827331543,-0.47403842210769653
1740033507627068700,2.392068603515625,-0.027635090053081512,-0.508073091506958,-0.44692263007164
1740033507637108000,2.40210791015625,-0.006067213602364063,-0.43803006410598755,-0.4073163568973541
1740033507647147800,2.412147705078125,0.043712593615055084,-0.30659428238868713,-0.39641073346138
1740033507657186800,2.422186767578125,0.017188839614391327,-0.275675505399704,-0.4008970856666565
1740033507667225900,2.432225830078125,-0.055870190262794495,-0.2924923300743103,-0.38435301184654236
1740033507677264600,2.4422646484375,-0.0649917796254158,-0.18063369393348694,-0.2711891531944275
1740033507687303700,2.4523037109375,-0.0686831921339035,0.020716464146971703,-0.11616655439138412
1740033507697343700,2.46234375,-0.08523207157850266,0.10037374496459961,0.01522662304341793
1740033507707382800,2.4723828125,-0.06281651556491852,0.1183261126279831,0.10147362947463989
1740033507717421800,2.482421875,-0.02321797050535679,0.0936007872223854,0.1496606022119522
1740033507727460900,2.4924609375,0.009518669918179512,0.046487871557474136,0.2036476731300354
1740033507737499600,2.502499755859375,0.029884129762649536,-0.01158368494361639,0.26542928814888
1740033507747538700,2.51253857421875,0.006178267300128937,-0.14874260127544403,0.260689377784729
1740033507757578800,2.522578857421875,-0.03991412743926048,-0.4042409658432007,0.2620584964752197
1740033507767617800,2.53261767578125,-0.0868946835398674,-0.7478981614112854,0.35008957982063293
1740033507777656800,2.54265673828125,-0.1579108089208603,-1.0614140033721924,0.4446179270744324
1740033507787695900,2.55269580078125,-0.23523248732089996,-1.211101770401001,0.5677116513252258
1740033507797734700,2.562734619140625,-0.3047979772090912,-0.9473732113838196,0.6900261044502258
1740033507807774700,2.572774658203125,-0.3517511188983917,-0.7248671650886536,0.7691017389297485
1740033507817813800,2.582813720703125,-0.3986150324344635,-0.3039931654930115,0.7509232759475708
1740033507827852800,2.592852783203125,-0.27661827206611633,0.11984943598508835,0.6204981803894043
1740033507837891800,2.602891845703125,-0.40853583812713623,0.18488197028636932,0.49066346883773804
1740033507847930600,2.6129306640625,-0.6724726557731628,0.15676777064800262,0.5111761689186096
1740033507857970700,2.622970703125,-0.9503841996192932,0.11796817928552628,0.6120298504829407
1740033507868009700,2.633009765625,-1.0924086570739746,0.3407866060733795,0.6116383671760559
1740033507878048800,2.643048828125,-1.0245710611343384,0.5543782711029053,0.48956623673439026
1740033507888087800,2.653087890625,-0.8029230833053589,0.5037409067153931,0.371902197599411
1740033507898126800,2.663126953125,-0.5061516165733337,0.3184565305709839,0.28116297721862793
1740033507908167000,2.6731669921875,-0.1944240778684616,0.19406960904598236,0.16332128643989563
1740033507918205700,2.683205810546875,0.0561535507440567,0.12638403475284576,-0.033120401203632355
1740033507928244700,2.69324462890625,0.12353046238422394,0.08027033507823944,-0.23227079212665558
1740033507938283800,2.70328369140625,0.18022462725639343,0.11648373305797577,-0.4150102436542511
1740033507948322800,2.71332275390625,0.21567343175411224,0.20637793838977814,-0.6359285116195679
1740033507958361900,2.72336181640625,0.17482294142246246,0.3027324378490448,-1.02086341381073
1740033507968401700,2.733401611328125,0.21540606021881104,-0.018341191112995148,-1.3073614835739136
1740033507978440700,2.743440673828125,0.3607083857059479,-0.7241142988204956,-1.3113104104995728
1740033507988479700,2.753479736328125,0.3505745232105255,-0.8620732426643372,-1.355759620666504
1740033507998518800,2.763518798828125,0.2992208003997803,-0.6110622882843018,-1.4720306396484375
1740033508008557800,2.773557861328125,0.2659033238887787,-0.5159102082252502,-1.4310448169708252
1740033508018598000,2.783597900390625,0.25918149948120117,-0.44816234707832336,-1.2040375471115112
1740033508028636700,2.79363671875,0.25699716806411743,-0.3497585356235504,-0.9599318504333496
1740033508038675700,2.80367578125,0.20965708792209625,-0.2007695883512497,-0.6769883036613464
1740033508048714800,2.81371484375,0.09692441672086716,-0.016388826072216034,-0.4583023190498352
1740033508058753800,2.82375390625,0.0666986033320427,0.05325469747185707,-0.30539000034332275
1740033508068793900,2.8337939453125,0.05307626724243164,0.020264524966478348,-0.1824481040239334
1740033508078833000,2.8438330078125,0.03894500061869621,-0.04344680905342102,-0.045586392283439636
1740033508088871700,2.85387158203125,0.038596127182245255,-0.019218435510993004,0.13477565348148346
1740033508098910700,2.86391064453125,0.009821205399930477,0.030904918909072876,0.3010559678077698
1740033508108949800,2.87394970703125,-0.06943739950656891,0.039141543209552765,0.4146861433982849
1740033508118989800,2.88398974609375,-0.10380229353904724,0.09316562861204147,0.4856335520744324
1740033508129028900,2.89402880859375,-0.11499103158712387,0.12596511840820312,0.5263476967811584
1740033508139068000,2.90406787109375,-0.07844474166631699,0.1343918889760971,0.5119101405143738
1740033508149106700,2.914106689453125,-0.04621702805161476,0.06076321378350258,0.44319233298301697
1740033508159145700,2.924145751953125,-0.052394233644008636,-0.04795820638537407,0.3773563504219055
1740033508169185800,2.934185791015625,-0.06812205910682678,-0.014565360732376575,0.30620813369750977
1740033508179224800,2.944224853515625,-0.05636287480592728,0.10669662058353424,0.21997123956680298
1740033508189264000,2.954263916015625,-0.019283151254057884,0.19962257146835327,0.1284724920988083
1740033508199302700,2.964302734375,0.007510646712034941,0.22408050298690796,0.03994448482990265
1740033508209341700,2.974341796875,0.008302670903503895,0.19075104594230652,-0.061700381338596344
1740033508219381800,2.9843818359375,-0.005640575196594,0.08399450033903122,-0.14724910259246826
1740033508229420500,2.994420654296875,-0.030732879415154457,-0.02244272455573082,-0.15961629152297974
1740033508239459800,3.0044599609375,-0.061103567481040955,-0.01972976326942444,-0.123964823782444
1740033508249499000,3.014498779296875,-0.08976876735687256,0.07076045870780945,-0.05898289382457733
1740033508259537700,3.02453759765625,-0.11075607687234879,0.19151350855827332,0.027893682941794395
1740033508269576700,3.03457666015625,-0.11712022870779037,0.27740445733070374,0.1338278353214264
1740033508279616800,3.04461669921875,-0.09887118637561798,0.32060277462005615,0.25475266575813293
1740033508289656000,3.054656005859375,-0.0490836575627327,0.3887117803096771,0.39782166481018066
1740033508299695400,3.0646953125,-0.01859259232878685,0.4024728834629059,0.5394017100334167
1740033508309734100,3.074734130859375,0.02250264585018158,0.39503228664398193,0.5966498255729675
1740033508319773200,3.084773193359375,0.04662502557039261,0.37728390097618103,0.5757554769515991
1740033508329813200,3.094813232421875,0.06174219399690628,0.29471924901008606,0.5349355936050415
1740033508339852000,3.10485205078125,0.07852303981781006,0.20089901983737946,0.5065500140190125
1740033508349891000,3.11489111328125,0.10829558223485947,0.14336036145687103,0.484501451253891
1740033508359930400,3.124930419921875,0.16370025277137756,0.12580053508281708,0.4541209042072296
1740033508369969200,3.13496923828125,0.2097444385290146,0.16631068289279938,0.3837774991989136
1740033508380009200,3.14500927734375,0.2299083024263382,0.15947914123535156,0.2745862901210785
1740033508390048300,3.15504833984375,0.1884588599205017,0.07988684624433517,0.12228170037269592
1740033508400087000,3.165087158203125,0.1241547018289566,-0.023922376334667206,-0.07548490166664124
1740033508410126300,3.175126220703125,0.10928228497505188,-0.07275569438934326,-0.27879807353019714
1740033508420165400,3.185165283203125,0.15592381358146667,-0.07249124348163605,-0.4241134524345398
1740033508430205200,3.195205078125,0.2698003351688385,-0.07777149230241776,-0.5326175689697266
1740033508440244200,3.205244140625,0.36109641194343567,-0.14414119720458984,-0.63905268907547
1740033508450283300,3.215283203125,0.44889816641807556,-0.20547007024288177,-0.710493803024292
1740033508460322000,3.225322021484375,0.517498254776001,-0.2649294137954712,-0.7154960632324219
1740033508470361300,3.235361328125,0.5871748328208923,-0.2580866813659668,-0.6406617164611816
1740033508480401200,3.245401123046875,0.6361599564552307,-0.10767772793769836,-0.5287660956382751
1740033508490440200,3.255440185546875,0.6415608525276184,0.07943890243768692,-0.4295066297054291
1740033508500479200,3.265479248046875,0.6186190247535706,0.1611049920320511,-0.3373684585094452
1740033508510518000,3.27551806640625,0.6103518009185791,0.19040855765342712,-0.2687031030654907
1740033508520557000,3.28555712890625,0.6308868527412415,0.21838612854480743,-0.22427891194820404
1740033508530597000,3.29559716796875,0.6330530643463135,0.2490210086107254,-0.19255107641220093
1740033508540636400,3.305636474609375,0.6407251358032227,0.2659890651702881,-0.19481688737869263
1740033508550675200,3.31567529296875,0.6663807034492493,0.2558269798755646,-0.23978915810585022
1740033508560714200,3.32571435546875,0.6873371005058289,0.19607709348201752,-0.30576416850090027
1740033508570753000,3.3357529296875,0.6979487538337708,0.11227913945913315,-0.35788998007774353
1740033508580793000,3.34579296875,0.7354236841201782,0.05939941108226776,-0.37669533491134644
1740033508590832000,3.35583203125,0.7987826466560364,0.05294417589902878,-0.37572088837623596
1740033508600871200,3.36587109375,0.8517758250236511,0.0912175253033638,-0.3396680951118469
1740033508610910200,3.37591015625,0.8662315011024475,0.16480493545532227,-0.2624891400337219
1740033508620950300,3.3859501953125,0.8120577335357666,0.23588043451309204,-0.16406723856925964
1740033508630989000,3.395989013671875,0.6653886437416077,0.33109402656555176,-0.06287563592195511
1740033508641028000,3.406028076171875,0.4842899739742279,0.4182574450969696,-0.012445750646293163
1740033508651067100,3.416067138671875,0.29173463582992554,0.46239107847213745,-0.026911241933703423
1740033508661106200,3.426106201171875,0.08148819953203201,0.43966391682624817,-0.08467121422290802
1740033508671146200,3.436146240234375,-0.13183152675628662,0.3151898980140686,-0.1122564971446991
1740033508681185300,3.446185302734375,-0.3343028724193573,0.13819195330142975,-0.08743690699338913
1740033508691224000,3.45622412109375,-0.4697195589542389,-0.0017214673571288586,-0.031032217666506767
1740033508701263000,3.46626318359375,-0.5803552865982056,-0.047435957938432693,0.06455688923597336
1740033508711302400,3.476302490234375,-0.6305225491523743,-0.019838951528072357,0.12867648899555206
1740033508721342200,3.48634228515625,-0.6231474876403809,-0.04127579927444458,0.12584981322288513
1740033508731381200,3.49638134765625,-0.6206334233283997,-0.1309036910533905,0.1044241413474083
1740033508741420300,3.506420166015625,-0.6154202818870544,-0.16329438984394073,0.058272894471883774
1740033508751459000,3.516458984375,-0.6266798973083496,-0.11667947471141815,-0.01011015847325325
1740033508761498000,3.526498046875,-0.6369748711585999,-0.19382698833942413,0.008293083868920803
1740033508771538200,3.5365380859375,-0.6119472980499268,-0.2889750897884369,0.06954418867826462
1740033508781577200,3.5465771484375,-0.5367081761360168,-0.3960503935813904,0.06995591521263123
1740033508791616300,3.5566162109375,-0.4331969618797302,-0.5340521931648254,0.008534898981451988
1740033508801655300,3.5666552734375,-0.3206946551799774,-0.6938083171844482,-0.0875580757856369
1740033508811694000,3.576694091796875,-0.2597689926624298,-0.7402482628822327,-0.1465284526348114
1740033508821734100,3.586734130859375,-0.2344713658094406,-0.620684027671814,-0.15674327313899994
1740033508831773200,3.596773193359375,-0.25484853982925415,-0.47472256422042847,-0.12056928873062134
1740033508841812200,3.606812255859375,-0.2506316900253296,-0.33936527371406555,-0.11427411437034607
1740033508851851300,3.616851318359375,-0.2657797336578369,-0.2759016156196594,-0.13991288840770721
1740033508861890000,3.62689013671875,-0.27681297063827515,-0.28848904371261597,-0.13946016132831573
1740033508871930000,3.63693017578125,-0.30442461371421814,-0.2006462812423706,-0.1243927925825119
1740033508881969200,3.64696923828125,-0.32562896609306335,-0.06843232363462448,-0.11889816075563431
1740033508892008200,3.65700830078125,-0.2974809408187866,-0.03777401149272919,-0.14987657964229584
1740033508902047200,3.667047119140625,-0.23359091579914093,-0.01010909304022789,-0.20931753516197205
1740033508912086300,3.677086181640625,-0.19189859926700592,0.03473054990172386,-0.25718599557876587
1740033508922126300,3.687126220703125,-0.18793074786663055,-0.017852233722805977,-0.29154130816459656
1740033508932165000,3.6971650390625,-0.146894633769989,-0.07472536712884903,-0.2691747546195984
1740033508942204200,3.7072041015625,-0.028746159747242928,-0.15013863146305084,-0.17703363299369812
1740033508952243200,3.7172431640625,0.1996007263660431,-0.05132470652461052,-0.12473314255475998
1740033508962282200,3.7272822265625,0.3302266597747803,-0.25090092420578003,-0.13839276134967804
1740033508972322300,3.737322265625,0.1808994710445404,-0.6431882977485657,-0.08451488614082336
1740033508982361000,3.747361083984375,-0.0028160265646874905,-0.7922903895378113,0.12734144926071167
1740033508992400100,3.757400146484375,-0.13480255007743835,-0.4432764947414398,0.4452664256095886
1740033509002439200,3.767439208984375,-0.14062954485416412,-0.05041204020380974,0.5646260976791382
1740033509012478200,3.777478271484375,-0.0898318886756897,0.27820873260498047,0.5495060086250305
1740033509022518300,3.787518310546875,-0.042811378836631775,0.5508796572685242,0.43850570917129517
1740033509032557300,3.797557373046875,0.02588486112654209,0.7579433917999268,0.2663824260234833
1740033509042596000,3.80759619140625,0.14588956534862518,0.8222653865814209,0.11763235926628113
1740033509052635100,3.81763525390625,0.15593206882476807,0.8088694214820862,-0.11559024453163147
1740033509062674200,3.827674072265625,0.008124771527945995,0.7233872413635254,-0.5193284153938293
1740033509072714000,3.8377138671875,0.06023218110203743,0.7465471625328064,-0.5288372039794922
1740033509082753300,3.847753173828125,0.1564716249704361,0.7327474355697632,-0.3924058675765991
1740033509092792300,3.857792236328125,0.18717335164546967,0.6545964479446411,-0.10972490161657333
1740033509102831000,3.8678310546875,0.16842523217201233,0.39082446694374084,0.027606859803199768
1740033509112871200,3.87787109375,0.14554761350154877,0.11578013002872467,0.1104426234960556
1740033509122910200,3.88791015625,0.01702612079679966,-0.09222207218408585,0.20235364139080048
1740033509132949000,3.897948974609375,-0.11339260637760162,-0.20432570576667786,0.241354301571846
1740033509142988300,3.90798828125,-0.2001946121454239,-0.21481908857822418,0.15874437987804413
1740033509153027300,3.91802734375,-0.2796415090560913,-0.187913179397583,0.04435787722468376
1740033509163067100,3.928067138671875,-0.3163861930370331,-0.021924473345279694,-0.06220318749547005
1740033509173106200,3.938106201171875,-0.27508190274238586,0.46201422810554504,-0.15255331993103027
1740033509183145200,3.948145263671875,-0.22504110634326935,0.41355350613594055,-0.22684326767921448
1740033509193184300,3.958184326171875,-0.043228164315223694,0.3790261447429657,-0.246381014585495
1740033509203223300,3.968223388671875,0.05220727622509003,0.4199237823486328,-0.1968241184949875
1740033509213263400,3.978263427734375,0.19199979305267334,0.15108884871006012,-0.21461962163448334
1740033509223302100,3.98830224609375,0.2468997985124588,-0.06633108854293823,-0.22300085425376892
1740033509233341200,3.998341064453125,0.3330242931842804,-0.3078036308288574,-0.282840758562088
1740033509243380200,4.008380126953125,0.33758923411369324,-0.2575623095035553,-0.29582393169403076
1740033509253419300,4.018419189453125,0.3036043643951416,0.006194512825459242,-0.24006932973861694
1740033509263459300,4.028459228515625,0.2828993499279022,0.17594093084335327,-0.15198233723640442
1740033509273498400,4.038498291015625,0.2697491943836212,0.32229602336883545,-0.09494622051715851
1740033509283537400,4.048537353515625,0.2675326466560364,0.4605167508125305,-0.05891098827123642
1740033509293576200,4.058576171875,0.2748875021934509,0.5483344793319702,-0.009886186569929123
1740033509303615200,4.068615234375,0.273052841424942,0.5391881465911865,0.07089734077453613
1740033509313655300,4.0786552734375,0.2441849708557129,0.3766825497150421,0.1276482343673706
1740033509323694300,4.0886943359375,0.600652813911438,0.10479246079921722,0.24729208648204803
1740033509333733400,4.0987333984375,0.6619601249694824,-0.07097829878330231,0.26083797216415405
1740033509343772200,4.108772216796875,0.7452187538146973,-0.024116521701216698,0.17131929099559784
1740033509353812200,4.118812255859375,0.8588478565216064,0.027830032631754875,0.15662795305252075
1740033509363851300,4.128851318359375,0.9139063358306885,0.08839084953069687,0.21288058161735535
1740033509373890000,4.13889013671875,0.9604266881942749,0.15505589544773102,0.30814769864082336
1740033509383929300,4.148929443359375,0.9885720610618591,0.30428293347358704,0.3995410203933716
1740033509393968400,4.158968505859375,1.013397216796875,0.3970296382904053,0.3617408871650696
1740033509404008400,4.169008544921875,0.9816518425941467,0.2859020531177521,0.22295212745666504
1740033509414047200,4.179047119140625,0.8601168990135193,0.11725285649299622,0.09694545716047287
1740033509424086300,4.189086181640625,0.7145423889160156,0.042083803564310074,0.057626012712717056
1740033509434125300,4.199125244140625,0.6695759296417236,0.027877436950802803,0.06616117805242538
1740033509444164400,4.209164306640625,0.6139057874679565,0.016773654147982597,0.08152654767036438
1740033509454204400,4.219204345703125,0.48822852969169617,0.05246933177113533,0.03285541757941246
1740033509464243200,4.2292431640625,0.30143067240715027,0.1227128729224205,-0.07685643434524536
1740033509474282200,4.2392822265625,0.12636698782444,0.10802473872900009,-0.20477710664272308
1740033509484321300,4.2493212890625,-0.020374780520796776,0.006623281631618738,-0.293942928314209
1740033509494360300,4.2593603515625,-0.10385662317276001,-0.07613737881183624,-0.3550342619419098
1740033509504400100,4.269400146484375,-0.06371399760246277,-0.07538503408432007,-0.39466822147369385
1740033509514439400,4.279439453125,-0.06920304149389267,-0.019238408654928207,-0.4330504834651947
1740033509524478200,4.289478271484375,-0.05640522018074989,-0.02672189101576805,-0.41333699226379395
1740033509534517200,4.299517333984375,-0.0107695572078228,-0.03182264417409897,-0.36036086082458496
1740033509544557300,4.309557373046875,0.023436883464455605,-0.013231649063527584,-0.28318244218826294
1740033509554596000,4.31959619140625,0.03654256463050842,0.06977934390306473,-0.1820792555809021
1740033509564635400,4.329635498046875,0.026388997212052345,0.20106786489486694,-0.056048888713121414
1740033509574674400,4.33967431640625,0.05546299368143082,0.29130294919013977,0.05279477313160896
1740033509584713200,4.349713134765625,0.10805483162403107,0.3133595287799835,0.13546009361743927
1740033509594753300,4.359753173828125,0.17147880792617798,0.2074759602546692,0.08510557562112808
1740033509604792300,4.369792236328125,0.2255857288837433,0.32754725217819214,0.03188363090157509
1740033509614831000,4.3798310546875,0.16813574731349945,0.31025585532188416,0.05209755524992943
1740033509624870400,4.389870361328125,0.15238820016384125,0.20587299764156342,0.03855245187878609
1740033509634909400,4.399909423828125,0.13527899980545044,0.09339971840381622,0.004450141917914152
1740033509644949200,4.40994921875,0.07702527940273285,0.004286624025553465,-0.001472728094086051
1740033509654988300,4.41998828125,0.015421566553413868,-0.04971695691347122,0.06322690844535828
1740033509665027300,4.43002734375,-0.008569786325097084,-0.10388138890266418,0.12178102880716324
1740033509675066000,4.440066162109375,0.056296829134225845,-0.05669550225138664,0.17832259833812714
1740033509685105400,4.45010546875,0.10760049521923065,0.036972664296627045,0.24031460285186768
1740033509695145500,4.4601455078125,0.0997265949845314,0.03599768131971359,0.2628617286682129
1740033509705184300,4.470184326171875,0.09062444418668747,0.026309633627533913,0.22909629344940186
1740033509715223300,4.480223388671875,0.09167905151844025,0.07298579066991806,0.17299069464206696
1740033509725262000,4.490261962890625,0.0696115717291832,0.10015615820884705,0.1644083857536316
1740033509735302100,4.50030224609375,0.05056384205818176,0.17263701558113098,0.2258158177137375
1740033509745341200,4.510341064453125,0.02785559929907322,0.18920160830020905,0.28019383549690247
1740033509755380500,4.52038037109375,0.0336783342063427,0.10342732071876526,0.20653186738491058
1740033509765419300,4.530419189453125,0.026820162311196327,0.11834395676851273,0.185393288731575
1740033509775458300,4.540458251953125,0.03940839320421219,0.17407645285129547,0.190304696559906
1740033509785498400,4.550498291015625,0.08997729420661926,0.20308254659175873,0.21477489173412323
1740033509795537200,4.560537109375,0.11175183206796646,0.17895616590976715,0.23939074575901031
1740033509805576400,4.570576416015625,0.11520116031169891,0.17305247485637665,0.24453997611999512
1740033509815615200,4.580615234375,0.09649617969989777,0.14175021648406982,0.22176408767700195
1740033509825654300,4.590654296875,0.0939541906118393,0.10096842795610428,0.1653442233800888
1740033509835694300,4.6006943359375,0.1029743179678917,0.06739421933889389,0.0883607566356659
1740033509845733000,4.610733154296875,0.0926404520869255,0.0353260338306427,0.00794527493417263
1740033509855772200,4.620772216796875,0.0791800394654274,0.02364913746714592,-0.036200348287820816
1740033509865811500,4.6308115234375,0.07745032012462616,0.03538142517209053,-0.014392787590622902
1740033509875851500,4.6408515625,0.10785829275846481,0.050023484975099564,0.09039753675460815
1740033509885890300,4.650890380859375,0.09426498413085938,0.06627941876649857,0.0868760421872139
1740033509895929300,4.660929443359375,0.0701383426785469,0.04993054270744324,0.05975813791155815
1740033509905968000,4.670968017578125,0.05205255001783371,0.030850857496261597,0.07767535001039505
1740033509916007200,4.681007080078125,0.038122352212667465,0.08206264674663544,0.09327828139066696
1740033509926047200,4.691047119140625,0.01937742717564106,0.1282767504453659,0.09606341272592545
1740033509936086300,4.701086181640625,0.01846129819750786,0.138636976480484,0.1172533929347992
1740033509946125300,4.711125244140625,-0.0037385455798357725,0.11547093838453293,0.14697879552841187
1740033509956164400,4.721164306640625,-0.007531153038144112,0.08109112083911896,0.17972981929779053
1740033509966203100,4.731203125,0.014541658572852612,0.05276680737733841,0.20361250638961792
1740033509976243200,4.7412431640625,0.03287059813737869,0.019766513258218765,0.2260216772556305
1740033509986282200,4.7512822265625,0.019724968820810318,-0.006866694428026676,0.23183269798755646
1740033509996321300,4.7613212890625,0.01756381429731846,-0.061035655438899994,0.24131807684898376
1740033510006360300,4.7713603515625,0.03798626363277435,-0.11577294021844864,0.2333831936120987
1740033510016399400,4.7813994140625,0.10263875871896744,-0.1740676760673523,0.21321667730808258
1740033510026439200,4.791439208984375,0.1850537359714508,-0.22245144844055176,0.2234104573726654
1740033510036478200,4.801478271484375,0.26910150051116943,-0.20366524159908295,0.23130059242248535
1740033510046517200,4.811517333984375,0.2775980532169342,-0.2504127621650696,0.26099592447280884
1740033510056556300,4.821556396484375,0.27780792117118835,-0.2401779741048813,0.27184775471687317
1740033510066596400,4.831596435546875,0.22964677214622498,-0.08797113597393036,0.22599798440933228
1740033510076635400,4.841635498046875,0.15552833676338196,-0.08728083968162537,0.18686363101005554
1740033510086674200,4.851674072265625,0.10778158903121948,-0.08262350410223007,0.10855577141046524
1740033510096713200,4.861713134765625,0.10653789341449738,-0.02545768953859806,0.017779262736439705
1740033510106752300,4.871752197265625,0.10756001621484756,0.0637185275554657,-0.0398896262049675
1740033510116792300,4.881792236328125,0.09991966933012009,0.12027660757303238,-0.06471055001020432
1740033510126831400,4.891831298828125,0.05834826081991196,0.1669122874736786,-0.07620874792337418
1740033510136870400,4.901870361328125,-0.02232101745903492,0.23010458052158356,-0.09212753176689148
1740033510146909200,4.9119091796875,-0.13798822462558746,0.24357697367668152,-0.12219541519880295
1740033510156948200,4.9219482421875,-0.24024881422519684,0.14438514411449432,-0.16665396094322205
1740033510166988300,4.93198828125,-0.27242380380630493,0.0892433300614357,-0.22072598338127136
1740033510177027300,4.94202734375,-0.23191311955451965,0.07576160877943039,-0.2817933261394501
1740033510187066400,4.95206640625,-0.1429387778043747,0.0014540859265252948,-0.3158029615879059
1740033510197105200,4.962105224609375,-0.062253255397081375,0.034633610397577286,-0.34907251596450806
1740033510207145200,4.972145263671875,-0.05910220369696617,0.15486282110214233,-0.36803555488586426
1740033510217184300,4.982184326171875,-0.08464005589485168,0.36206793785095215,-0.35938265919685364
1740033510227223000,4.99222314453125,-0.15879523754119873,0.29086965322494507,-0.29379647970199585
1740033510237262300,5.002262451171875,-0.1789625585079193,0.27351728081703186,-0.2669509947299957
1740033510247301400,5.01230126953125,-0.15314054489135742,0.48990127444267273,-0.235865518450737
1740033510257341400,5.022341552734375,-0.15675711631774902,0.8187114000320435,-0.1793239563703537
1740033510267380200,5.032380126953125,-0.007470699492841959,1.01139235496521,-0.24226084351539612
1740033510277419300,5.042419189453125,0.4018094837665558,0.8917235136032104,-0.5021624565124512
1740033510287457800,5.052457763671875,1.1866565942764282,0.6498438119888306,-0.87053382396698
1740033510297497900,5.062497802734375,1.6401938199996948,0.6734841465950012,-0.9906290769577026
1740033510307537000,5.072536865234375,1.7980291843414307,0.7900959849357605,-0.9519690275192261
1740033510317576000,5.082575927734375,1.7947887182235718,0.7713028192520142,-0.7767876386642456
1740033510327614700,5.09261474609375,1.5093023777008057,0.5690650343894958,-0.38262033462524414
1740033510337653800,5.10265380859375,1.2992016077041626,0.41856929659843445,-0.07668305933475494
1740033510347693800,5.11269384765625,1.1893647909164429,0.5112299919128418,0.07748467475175858
1740033510357732900,5.12273291015625,1.096848487854004,0.6756069660186768,0.18840453028678894
1740033510367772000,5.13277197265625,1.0299408435821533,0.706005334854126,0.3326836824417114
1740033510377810700,5.142810791015625,0.9159596562385559,0.6464096307754517,0.502253532409668
1740033510387849700,5.152849609375,0.7586347460746765,0.5068266987800598,0.5738605856895447
1740033510397889800,5.162889892578125,0.5833063125610352,0.23003560304641724,0.4765641391277313
1740033510407928800,5.1729287109375,0.46458151936531067,0.11122026294469833,0.25572019815444946
1740033510417967900,5.1829677734375,0.4115947484970093,0.38220834732055664,0.06899158656597137
1740033510428007000,5.1930068359375,0.4763878583908081,0.4570823311805725,-0.06649753451347351
1740033510438047000,5.203046875,0.6012296676635742,0.2961461842060089,-0.12759551405906677
1740033510448085800,5.213085693359375,0.6649604439735413,0.12504659593105316,-0.13335353136062622
1740033510458124800,5.223124755859375,0.6966022253036499,0.09435499459505081,-0.15721970796585083
1740033510468163800,5.233163818359375,0.7449026703834534,0.11740092933177948,-0.201288104057312
1740033510478203000,5.243202880859375,0.7949267029762268,0.15488305687904358,-0.2680692672729492
1740033510488243000,5.253242919921875,0.8090795278549194,0.21798506379127502,-0.34553423523902893
1740033510498281700,5.26328173828125,0.788946270942688,0.30995145440101624,-0.4121913015842438
1740033510508320800,5.27332080078125,0.7494513392448425,0.3877005875110626,-0.44516655802726746
1740033510518359800,5.28335986328125,0.6802059412002563,0.41878819465637207,-0.4291281998157501
1740033510528399600,5.293399658203125,0.6035007834434509,0.3910316824913025,-0.3634415864944458
1740033510538439000,5.30343896484375,0.5509771108627319,0.30877354741096497,-0.28648263216018677
1740033510548478000,5.31347802734375,0.5379108786582947,0.31769487261772156,-0.24587342143058777
1740033510558516700,5.323516845703125,0.580043375492096,0.4747478663921356,-0.26104065775871277
1740033510568555800,5.3335556640625,0.6667404770851135,0.6848078966140747,-0.29940828680992126
1740033510578595800,5.343595947265625,0.7561089992523193,0.8476468920707703,-0.3042203485965729
1740033510588634600,5.353634521484375,0.7947551608085632,0.9894916415214539,-0.24211090803146362
1740033510598674000,5.363673828125,0.7721617221832275,1.0839576721191406,-0.15457412600517273
1740033510608713000,5.373712890625,0.7078096270561218,1.1419410705566406,-0.06560750305652618
1740033510618751700,5.383751708984375,0.6145875453948975,1.1927001476287842,0.02026985213160515
1740033510628791800,5.393791748046875,0.5404653549194336,1.2768219709396362,0.10724656283855438
1740033510638830800,5.403830810546875,0.5206567645072937,1.4120221138000488,0.1937257945537567
1740033510648869600,5.41386962890625,0.5939450860023499,1.576924204826355,0.25583842396736145
1740033510658909000,5.423908935546875,0.738062858581543,1.7865594625473022,0.3128982484340668
1740033510668949000,5.433948974609375,0.9116133451461792,2.1191065311431885,0.36909282207489014
1740033510678987800,5.44398779296875,1.0911290645599365,2.491495370864868,0.41708245873451233
1740033510689026800,5.45402685546875,1.2738573551177979,2.7671806812286377,0.47626668214797974
1740033510699065900,5.46406591796875,1.4417017698287964,2.937718152999878,0.5679068565368652
1740033510709105000,5.47410498046875,1.591483235359192,2.9337704181671143,0.6966906785964966
1740033510719144700,5.484144775390625,1.7235437631607056,2.6322686672210693,0.8622907996177673
1740033510729184000,5.49418408203125,1.7672550678253174,2.179666519165039,1.0296428203582764
1740033510739222800,5.504222900390625,1.7163420915603638,1.7732354402542114,1.1251498460769653
1740033510749261800,5.51426171875,1.6533223390579224,1.41141676902771,1.0975091457366943
1740033510759302000,5.524302001953125,1.5517959594726562,1.1605310440063477,0.9733744263648987
1740033510769340700,5.534340576171875,1.3542366027832031,0.9583872556686401,0.768549919128418
1740033510779380000,5.5443798828125,1.0884687900543213,0.7707387804985046,0.5163595080375671
1740033510789419000,5.5544189453125,0.8135368227958679,0.5941925048828125,0.280115008354187
1740033510799457800,5.564457763671875,0.5687329769134521,0.4128839671611786,0.11183705180883408
1740033510809497900,5.574497802734375,0.3917382061481476,0.22118139266967773,0.010526410304009914
1740033510819537000,5.584536865234375,0.32238122820854187,0.10845377296209335,-0.06561869382858276
1740033510829575700,5.59457568359375,0.3845985531806946,-0.007715177722275257,-0.14096590876579285
1740033510839615000,5.604614990234375,0.5276044607162476,-0.1960936039686203,-0.19438332319259644
1740033510849653800,5.61465380859375,0.634939968585968,-0.2940784990787506,-0.21657492220401764
1740033510859693800,5.62469384765625,0.6487215161323547,-0.34308892488479614,-0.21091650426387787
1740033510869732900,5.63473291015625,0.5788804292678833,-0.31220290064811707,-0.1782810539007187
1740033510879771600,5.644771728515625,0.482746422290802,-0.16935360431671143,-0.12413047254085541
1740033510889810700,5.654810791015625,0.38897544145584106,-0.0407831147313118,-0.07030478864908218
1740033510899850800,5.664850830078125,0.31521493196487427,-0.05806223675608635,-0.003163302782922983
1740033510909889800,5.674889892578125,0.24926868081092834,-0.12572143971920013,0.06291425228118896
1740033510919928800,5.6849287109375,0.17331452667713165,-0.1214049905538559,0.09645729511976242
1740033510929967900,5.6949677734375,0.07909082621335983,-0.1730751097202301,0.0968538448214531
1740033510940006700,5.705006591796875,-0.051834966987371445,-0.2508266270160675,0.08340886980295181
1740033510950046700,5.715046630859375,-0.17655666172504425,-0.3395857810974121,0.06156855449080467
1740033510960085800,5.725085693359375,-0.28931304812431335,-0.5045912861824036,0.025683259591460228
1740033510970124800,5.735124755859375,-0.4564144015312195,-0.796413779258728,-0.02779834158718586
1740033510980163800,5.745163818359375,-0.5678139328956604,-0.9609942436218262,-0.07479008287191391
1740033510990204000,5.755203857421875,-0.6278785467147827,-0.9785420298576355,-0.1223144605755806
1740033511000242700,5.76524267578125,-0.6920969486236572,-0.9963559508323669,-0.21591497957706451
1740033511010281700,5.77528173828125,-0.72549968957901,-0.9603779315948486,-0.3319542407989502
1740033511020320800,5.78532080078125,-0.7603404521942139,-0.8938775062561035,-0.44073450565338135
1740033511030359800,5.79535986328125,-0.7887465357780457,-0.8945595026016235,-0.5254043936729431
1740033511040400000,5.80539990234375,-0.7778757810592651,-0.9076436161994934,-0.5249082446098328
1740033511050439000,5.81543896484375,-0.7233923077583313,-0.944724977016449,-0.4348430633544922
1740033511060477700,5.825477783203125,-0.6969093084335327,-1.0160329341888428,-0.3168357312679291
1740033511070516700,5.835516845703125,-0.675586462020874,-0.9900195002555847,-0.23941685259342194
1740033511080556800,5.845556884765625,-0.633087158203125,-0.9440197348594666,-0.23016050457954407
1740033511090595800,5.855595947265625,-0.6038310527801514,-0.9096628427505493,-0.2740288972854614
1740033511100635000,5.865634765625,-0.6333138346672058,-0.9281185865402222,-0.3515649437904358
1740033511110674000,5.875673828125,-0.6959596276283264,-0.9299971461296082,-0.4625186324119568
1740033511120712700,5.885712646484375,-0.7465261220932007,-0.8678091168403625,-0.574123740196228
1740033511130752800,5.895752685546875,-0.7506170272827148,-0.7678351402282715,-0.6420164704322815
1740033511140791800,5.905791748046875,-0.7371885776519775,-0.7497341632843018,-0.6463550329208374
1740033511150830800,5.915830810546875,-0.6883981227874756,-0.7807037830352783,-0.5727159976959229
1740033511160870000,5.925869873046875,-0.5633416771888733,-0.8532357811927795,-0.4494566321372986
1740033511170910000,5.935909912109375,-0.40273386240005493,-0.8511292338371277,-0.3105538785457611
1740033511180948700,5.94594873046875,-0.25984808802604675,-0.6954832077026367,-0.18936966359615326
1740033511190987800,5.95598779296875,-0.13788862526416779,-0.4475175738334656,-0.11124502867460251
1740033511201026800,5.96602685546875,-0.011209511198103428,-0.1519988477230072,-0.06687091290950775
1740033511211065900,5.97606591796875,0.13590164482593536,0.18881146609783173,-0.021792912855744362
1740033511221106000,5.98610595703125,0.2946007549762726,0.44734928011894226,0.01944214105606079
1740033511231145000,5.99614501953125,0.45005372166633606,0.6092311143875122,0.04746392369270325
1740033511241183700,6.006183837890625,0.5994605422019958,0.7738333940505981,0.06435209512710571
1740033511251222800,6.016222900390625,0.7361275553703308,0.8293959498405457,0.09375391900539398
1740033511261262800,6.026262939453125,0.8842592239379883,0.7168494462966919,0.1533578634262085
1740033511271301600,6.036301513671875,1.02644944190979,0.6214033365249634,0.24432824552059174
1740033511281341000,6.0463408203125,1.0988799333572388,0.758225679397583,0.35680046677589417
1740033511291380000,6.0563798828125,1.1471917629241943,1.0390642881393433,0.4753822386264801
1740033511301418800,6.066418701171875,1.257120966911316,1.4829940795898438,0.587803840637207
1740033511311458800,6.076458740234375,1.4937726259231567,2.0667614936828613,0.709062397480011
1740033511321497900,6.086497802734375,1.8544213771820068,2.5340030193328857,0.848114550113678
1740033511331537000,6.096536865234375,2.232193946838379,2.8096330165863037,1.01839280128479
1740033511341576000,6.106575927734375,2.495814323425293,3.0366454124450684,1.203450322151184
1740033511351616000,6.116615966796875,2.6297340393066406,3.3019442558288574,1.3278257846832275
1740033511361655000,6.126655029296875,2.689713478088379,3.446702003479004,1.3694767951965332
1740033511371693800,6.13669384765625,2.707719564437866,3.3693604469299316,1.3734022378921509
1740033511381732900,6.14673291015625,2.712263345718384,3.190410614013672,1.396322250366211
1740033511391772000,6.15677197265625,2.7040517330169678,2.950665235519409,1.4281935691833496
1740033511401811700,6.166811767578125,2.6660118103027344,2.687434673309326,1.4722825288772583
1740033511411851000,6.17685107421875,2.621939182281494,2.5608112812042236,1.5508265495300293
1740033511421889800,6.186889892578125,2.5977935791015625,2.6549203395843506,1.6129953861236572
1740033511431928800,6.1969287109375,2.5770044326782227,2.821017026901245,1.6169174909591675
1740033511441969000,6.206968994140625,2.549248695373535,2.775712013244629,1.518787145614624
1740033511452008000,6.217008056640625,2.5156402587890625,2.5036911964416504,1.3921139240264893
1740033511462047000,6.227046875,2.493624448776245,2.204514741897583,1.3201470375061035
1740033511472086000,6.2370859375,2.475667953491211,2.089905023574829,1.273791790008545
1740033511482124800,6.247124755859375,2.4795539379119873,2.106323003768921,1.243138074874878
1740033511492164900,6.257164794921875,2.511934280395508,2.040292501449585,1.18607497215271
1740033511502204000,6.267203857421875,2.556015968322754,1.9194179773330688,1.0885471105575562
1740033511512242700,6.27724267578125,2.522906541824341,1.8542264699935913,0.9929817318916321
1740033511522282000,6.287281982421875,2.484520673751831,1.8428486585617065,0.9017711281776428
1740033511532322000,6.297322021484375,2.482522964477539,1.669488787651062,0.8042658567428589
1740033511542360800,6.30736083984375,2.485304832458496,1.4432942867279053,0.7222349047660828
1740033511552400000,6.31739990234375,2.5016255378723145,1.3394744396209717,0.6568753123283386
1740033511562439000,6.32743896484375,2.5456442832946777,1.4526989459991455,0.623449444770813
1740033511572477700,6.337477783203125,2.4585886001586914,1.1792120933532715,0.9553661346435547
1740033511582517800,6.347517822265625,2.27453875541687,1.3772114515304565,1.171194076538086
1740033511592557000,6.35755712890625,2.0970475673675537,1.4206254482269287,1.0925570726394653
1740033511602595800,6.367595947265625,1.9677647352218628,1.1981042623519897,1.0363267660140991
1740033511612635000,6.377634765625,1.998241901397705,0.9546830654144287,0.8757765293121338
1740033511622675000,6.387675048828125,2.0177204608917236,0.554477334022522,0.6662909388542175
1740033511632713700,6.397713623046875,1.9515907764434814,0.40719252824783325,0.40012291073799133
1740033511642752800,6.407752685546875,1.8728989362716675,0.6673676371574402,0.08508879691362381
1740033511652792000,6.4177919921875,1.8449530601501465,1.082204818725586,-0.282697468996048
1740033511662830800,6.427830810546875,1.8482755422592163,1.4311795234680176,-0.6810534000396729
1740033511672871000,6.437870849609375,1.810558795928955,1.6367963552474976,-1.0462654829025269
1740033511682910000,6.447909912109375,1.693074345588684,1.6750987768173218,-1.338579535484314
1740033511692948700,6.45794873046875,1.5086970329284668,1.6724917888641357,-1.5443860292434692
1740033511702988000,6.467988037109375,1.3223724365234375,1.6956496238708496,-1.6649281978607178
1740033511713027800,6.47802783203125,1.1697503328323364,1.4612770080566406,-1.743215799331665
1740033511723067000,6.48806689453125,0.9621103405952454,1.0424590110778809,-1.7389779090881348
1740033511733106000,6.49810595703125,0.7161213755607605,0.6568865180015564,-1.6867176294326782
1740033511743145000,6.50814501953125,0.5066730380058289,0.5646894574165344,-1.6211767196655273
1740033511753183700,6.518183837890625,0.2959752082824707,0.5976149439811707,-1.5203949213027954
1740033511763223800,6.528223876953125,0.26591265201568604,0.6151686310768127,-1.332579493522644
1740033511773263000,6.53826318359375,0.36722540855407715,0.8377074599266052,-1.1107105016708374
1740033511783302000,6.548302001953125,0.3934570252895355,1.0889018774032593,-0.8932673931121826
1740033511793341000,6.5583408203125,0.29628786444664,1.3643549680709839,-0.7659896016120911
1740033511803381000,6.568381103515625,0.18272081017494202,1.427932620048523,-0.735295295715332
1740033511813419800,6.578419677734375,0.04054556041955948,1.2575262784957886,-0.7079235911369324
1740033511823458800,6.588458740234375,-0.1636592298746109,1.0230730772018433,-0.6654845476150513
1740033511833498000,6.598498046875,-0.35135191679000854,0.8297432661056519,-0.6346376538276672
1740033511843537000,6.608536865234375,-0.40787458419799805,0.622241199016571,-0.5580006837844849
1740033511853577000,6.618576904296875,-0.27386295795440674,0.7960135340690613,-0.5437197685241699
1740033511863616000,6.628615966796875,-0.07167871296405792,0.7995334267616272,-0.6364321112632751
1740033511873654800,6.63865478515625,0.08718976378440857,0.8421647548675537,-0.6838955283164978
1740033511883693800,6.64869384765625,0.10771181434392929,0.9895219802856445,-0.7028942108154297
1740033511893734000,6.65873388671875,0.02383768931031227,1.098875880241394,-0.6266244649887085
1740033511903773000,6.66877294921875,-0.04592035338282585,1.161469578742981,-0.45665568113327026
1740033511913812000,6.67881201171875,-0.13769608736038208,1.0863068103790283,-0.32853153347969055
1740033511923851000,6.68885107421875,-0.2837699353694916,0.9012451171875,-0.30436813831329346
1740033511933889800,6.698889892578125,-0.4816257655620575,0.627249538898468,-0.35124510526657104
1740033511943929900,6.708929931640625,-0.6272279620170593,0.2663603127002716,-0.4402271807193756
1740033511953969000,6.718968994140625,-0.6444282531738281,0.002597380895167589,-0.5278161764144897
1740033511964008000,6.729008056640625,-0.5605913996696472,0.0308146383613348,-0.6343087553977966
1740033511974047000,6.739046875,-0.42077571153640747,0.23843280971050262,-0.8558307886123657
1740033511984087000,6.749087158203125,-0.22833703458309174,0.41898927092552185,-1.1378326416015625
1740033511994125800,6.759125732421875,0.02564251236617565,0.6257142424583435,-1.4609034061431885
1740033512004164900,6.769164794921875,0.3106643855571747,0.8039792776107788,-1.7278999090194702
1740033512014204000,6.779203857421875,0.5958777666091919,0.9104751348495483,-1.8042668104171753
1740033512024243700,6.78924365234375,0.8017411828041077,0.9834095239639282,-1.6710944175720215
1740033512034283000,6.799282958984375,0.886448860168457,1.149375557899475,-1.4025827646255493
1740033512044322000,6.809322021484375,0.8330895304679871,1.4691463708877563,-1.0753934383392334
1740033512054360800,6.81936083984375,0.6932905912399292,2.089238405227661,-0.7575742602348328
1740033512064400000,6.82939990234375,0.4935207664966583,2.7020537853240967,-0.4318813681602478
1740033512074440000,6.83943994140625,0.2925141453742981,3.041442632675171,-0.11255504190921783
1740033512084479000,6.84947900390625,0.07637892663478851,3.0782012939453125,0.17959213256835938
1740033512094518000,6.85951806640625,-0.1269049495458603,2.988913059234619,0.4462760090827942
1740033512104556800,6.869556884765625,-0.2628244459629059,3.1985256671905518,0.6326168775558472
1740033512114596900,6.879596923828125,-0.3172301650047302,3.6516928672790527,0.7166622281074524
1740033512124636000,6.889635986328125,-0.38913097977638245,3.939497470855713,0.6587920188903809
1740033512134674700,6.8996748046875,-0.4223965108394623,4.092229843139648,0.5631738901138306
1740033512144714000,6.9097138671875,-0.49396684765815735,3.7910103797912598,0.5267778038978577
1740033512154753000,6.9197529296875,-0.5650972127914429,3.1104984283447266,0.561880886554718
1740033512164793000,6.92979296875,-0.647269070148468,2.4077248573303223,0.6334629654884338
1740033512174831900,6.939831787109375,-0.7367305159568787,1.93107008934021,0.7153394222259521
1740033512184871000,6.949870849609375,-0.8738830089569092,1.6091551780700684,0.8005068302154541
1740033512194909700,6.95990966796875,-1.0501693487167358,1.4462504386901855,0.8057372570037842
1740033512204949800,6.96994970703125,-1.133744478225708,1.5602853298187256,0.708092987537384
1740033512214989000,6.979989013671875,-0.9913595914840698,1.909321904182434,0.45998305082321167
1740033512225027800,6.99002783203125,-0.6604415774345398,2.031728744506836,0.15094584226608276
1740033512235067000,7.00006689453125,-0.17188628017902374,1.2349317073822021,-0.03193582966923714
1740033512245106000,7.01010595703125,0.19750268757343292,-0.06782698631286621,-0.15078552067279816
1740033512255145700,7.020145751953125,0.3278670907020569,-1.3252313137054443,-0.22492951154708862
1740033512265184800,7.030184814453125,0.3977641463279724,-2.2684032917022705,-0.20242181420326233
1740033512275224000,7.04022412109375,0.45505139231681824,-2.4363932609558105,-0.18165075778961182
1740033512285262800,7.050262939453125,0.4591563940048218,-1.7069534063339233,-0.2413574904203415
1740033512295303000,7.060302978515625,0.36825552582740784,-0.5101591348648071,-0.33592474460601807
1740033512305341700,7.070341796875,0.3061836361885071,0.43849799036979675,-0.375082790851593
1740033512315380700,7.080380615234375,0.14423148334026337,0.8713015913963318,-0.37572968006134033
1740033512325419800,7.090419677734375,-0.15219007432460785,0.23152217268943787,-0.15008564293384552
1740033512335458800,7.100458740234375,-0.2660881280899048,-0.695097029209137,0.22823210060596466
1740033512345499000,7.110498779296875,-0.38774001598358154,-1.3307491540908813,0.6195801496505737
1740033512355538000,7.120537841796875,-0.6234949827194214,-1.2482709884643555,0.8913626670837402
1740033512365576700,7.13057666015625,-0.8157054781913757,-0.7247734069824219,1.0234533548355103
1740033512375615700,7.14061572265625,-0.9292879700660706,-0.25563761591911316,1.0528453588485718
1740033512385655800,7.15065576171875,-0.9139183163642883,-0.015728630125522614,1.00478994846344
1740033512395694800,7.16069482421875,-0.8275805115699768,0.3427823781967163,0.8390589952468872
1740033512405734000,7.17073388671875,-0.5985438227653503,1.056968092918396,0.552243173122406
1740033512415772700,7.180772705078125,-0.2866285741329193,1.82445228099823,0.16866570711135864
1740033512425812700,7.190812744140625,-0.07224516570568085,2.3092455863952637,-0.20336563885211945
1740033512435851800,7.200851806640625,-0.034576352685689926,2.423638343811035,-0.4718809723854065
1740033512445890600,7.210890625,-0.013101953081786633,2.206935405731201,-0.6754328012466431
1740033512455929900,7.220929931640625,0.035869050770998,1.7391176223754883,-0.79416424036026
1740033512465969000,7.230968994140625,-0.02948652021586895,0.9703970551490784,-0.8897762298583984
1740033512476009000,7.241009033203125,-0.1592029631137848,0.568909764289856,-1.0162686109542847
1740033512486047700,7.2510478515625,-0.28493666648864746,0.5437692999839783,-1.1330879926681519
1740033512496086800,7.261086669921875,-0.3971497416496277,0.7448598146438599,-1.215369462966919
1740033512506125600,7.27112548828125,-0.46670326590538025,0.9974979162216187,-1.2184630632400513
1740033512516165600,7.28116552734375,-0.46187761425971985,1.0272563695907593,-1.147886872291565
1740033512526205000,7.291204833984375,-0.377544105052948,0.8244459629058838,-0.993076503276825
1740033512536243700,7.30124365234375,-0.2343112975358963,0.46473705768585205,-0.7710645198822021
1740033512546282800,7.31128271484375,-0.044146955013275146,0.21748997271060944,-0.5347877740859985
1740033512556321800,7.32132177734375,0.05053028464317322,0.1182134598493576,-0.30243629217147827
1740033512566361600,7.331361572265625,0.06367458403110504,0.1742090880870819,-0.02558125928044319
1740033512576400600,7.341400634765625,0.041676074266433716,0.235640749335289,0.3073218762874603
1740033512586440000,7.35143994140625,0.022849921137094498,0.2627032697200775,0.6578913331031799
1740033512596478700,7.361478759765625,0.05356202647089958,0.36062902212142944,0.9556494951248169
1740033512606518800,7.371518798828125,0.13091833889484406,0.7671637535095215,1.2560369968414307
1740033512616557800,7.381557861328125,0.22243653237819672,1.0719175338745117,1.3912193775177002
1740033512626596600,7.3915966796875,0.32602179050445557,1.4009149074554443,1.408355712890625
1740033512636636000,7.401635986328125,0.3204144835472107,1.4924477338790894,1.3371657133102417
1740033512646675000,7.411675048828125,0.2736552357673645,1.415087103843689,1.25593900680542
1740033512656714800,7.42171484375,0.2679124176502228,1.1028040647506714,1.179322600364685
1740033512666753800,7.43175390625,0.22642141580581665,0.8214722871780396,1.1017042398452759
1740033512676792800,7.441792724609375,0.22103570401668549,0.7598600387573242,0.9504339694976807
1740033512686831600,7.45183154296875,0.22115501761436462,0.9288589358329773,0.7520170211791992
1740033512696871700,7.46187158203125,0.3521881401538849,1.05217444896698,0.5843561291694641
1740033512706911000,7.471910888671875,0.44688987731933594,1.0054932832717896,0.48638907074928284
1740033512716949800,7.48194970703125,0.4386601746082306,0.9440748691558838,0.4661770164966583
1740033512726988800,7.49198876953125,0.4266684949398041,0.9088814854621887,0.5085012912750244
1740033512737027800,7.50202783203125,0.4942621886730194,0.9341684579849243,0.5182911157608032
1740033512747067600,7.512067626953125,0.6990100145339966,1.0943437814712524,0.4702301025390625
1740033512757106700,7.522106689453125,0.9450312256813049,1.2966574430465698,0.392720103263855
1740033512767146000,7.53214599609375,1.1423296928405762,1.4674760103225708,0.2932470440864563
1740033512777184800,7.542184814453125,1.2419742345809937,1.458548903465271,0.20890608429908752
1740033512787224800,7.552224853515625,1.247938632965088,1.2662981748580933,0.1317756026983261
1740033512797264000,7.562263916015625,1.2460901737213135,1.1036381721496582,0.004091148264706135
1740033512807302700,7.572302734375,1.3750382661819458,0.9130735397338867,-0.174541175365448
1740033512817341700,7.582341796875,1.6031750440597534,0.5025091767311096,-0.36542245745658875
1740033512827381800,7.5923818359375,1.71945321559906,-0.17464478313922882,-0.6151925921440125
1740033512837420800,7.6024208984375,1.5720107555389404,-0.36552631855010986,-0.7297764420509338
1740033512847459800,7.6124599609375,1.271404504776001,-0.21569794416427612,-0.8715718984603882
1740033512857499000,7.622498779296875,0.9671573042869568,-0.06280532479286194,-0.9570109248161316
1740033512867537700,7.63253759765625,0.7359520196914673,0.0075841499492526054,-0.9481516480445862
1740033512877577700,7.64257763671875,0.6023881435394287,-0.13075216114521027,-0.8554054498672485
1740033512887616800,7.65261669921875,0.5119016170501709,-0.42173925042152405,-0.7011368274688721
1740033512897655800,7.66265576171875,0.3967510759830475,-0.5339124202728271,-0.4817506670951843
1740033512907694800,7.67269482421875,0.24946282804012299,-0.467129111289978,-0.19668163359165192
1740033512917735000,7.68273486328125,0.20145907998085022,-0.5140672922134399,0.13327284157276154
1740033512927773700,7.692773681640625,0.25511619448661804,-0.7529171705245972,0.4886445105075836
1740033512937812700,7.702812744140625,0.2371464967727661,-0.9591984748840332,0.9020779132843018
1740033512947851800,7.712851806640625,0.1491151750087738,-1.2005455493927002,1.2925841808319092
1740033512957890800,7.722890869140625,0.07534375786781311,-1.1750894784927368,1.7737529277801514
1740033512967931000,7.732930908203125,-0.015621037222445011,-1.1721373796463013,2.299640655517578
1740033512977970000,7.742969970703125,-0.043116312474012375,-1.1521189212799072,2.862410068511963
1740033512988008700,7.7530087890625,-0.05312659963965416,-0.9967942833900452,3.448009729385376
1740033512998047700,7.7630478515625,-0.044433243572711945,-0.6428343653678894,4.029531478881836
1740033513008087800,7.773087890625,-0.017353689298033714,-0.3056890666484833,4.645867824554443
1740033513018126800,7.783126953125,0.01561384741216898,-0.10598742216825485,5.323473930358887
1740033513028166000,7.793165771484375,0.0873173251748085,-0.42504850029945374,5.936448574066162
1740033513038204700,7.80320458984375,0.26366278529167175,-0.3027329742908478,6.527677059173584
1740033513048244700,7.81324462890625,0.485665500164032,0.04556668549776077,7.103105545043945
1740033513058283800,7.82328369140625,0.5419445037841797,-2.3974671363830566,6.39426851272583
1740033513068322600,7.833322509765625,0.7330007553100586,-7.284671783447266,3.5172553062438965
1740033513078361900,7.84336181640625,1.1647531986236572,-6.553941249847412,2.4578981399536133
1740033513088401000,7.85340087890625,1.492262363433838,-3.9544312953948975,2.5569818019866943
1740033513098441000,7.86344091796875,1.7064210176467896,-2.537794589996338,2.3478105068206787
1740033513108479700,7.873479736328125,1.772611141204834,-2.4202780723571777,1.4089144468307495
1740033513118518800,7.883518798828125,1.6708816289901733,-2.029135227203369,0.5616958141326904
1740033513128557600,7.8935576171875,1.457066535949707,-1.0049071311950684,0.10801887512207031
1740033513138597600,7.90359765625,1.2696857452392578,-0.27972617745399475,-0.332191526889801
1740033513148637000,7.913636962890625,1.1041077375411987,-0.11649971455335617,-0.8304388523101807
1740033513158675700,7.92367578125,0.7931317090988159,0.1256527304649353,-1.1853631734848022
1740033513168714800,7.93371484375,0.4601380527019501,0.18965356051921844,-1.439574122428894
1740033513178753800,7.94375390625,0.21219667792320251,0.008538627065718174,-1.6610958576202393
1740033513188793600,7.953793701171875,0.008462460711598396,-0.14535772800445557,-1.7840588092803955
1740033513198832600,7.96383251953125,-0.1683192402124405,-0.016984043642878532,-1.7541203498840332
1740033513208872000,7.973871826171875,-0.47538888454437256,0.8064504265785217,-1.6422665119171143
1740033513218910700,7.98391064453125,-0.8222706913948059,1.5978060960769653,-1.529233455657959
1740033513228950800,7.99395068359375,-1.0387063026428223,1.2472141981124878,-1.2973512411117554
1740033513238989800,8.00398974609375,-0.9644986391067505,-0.03537290543317795,-0.8812562227249146
1740033513249028600,8.014028564453126,-0.5857180953025818,-1.2291755676269531,-0.2641110122203827
1740033513259067600,8.024067626953125,-0.09689858555793762,-1.6733216047286987,0.2880927622318268
1740033513269107700,8.034107666015625,0.45016583800315857,-1.8890589475631714,0.6134455800056458
1740033513279146800,8.044146728515624,0.7667677402496338,-1.9076616764068604,0.7489932775497437
1740033513289185800,8.054185791015625,0.713172972202301,-1.5208412408828735,0.821509838104248
1740033513299224800,8.064224853515626,0.4350702464580536,-1.025068759918213,0.8856920003890991
1740033513309263600,8.074263671875,0.16095799207687378,-0.7651613354682922,0.9673152565956116
1740033513319303700,8.0843037109375,-0.11917219310998917,-0.5374738574028015,1.0244547128677368
1740033513329342700,8.0943427734375,-0.3741205930709839,-0.23819606006145477,1.0644394159317017
1740033513339381800,8.1043818359375,-0.5043821930885315,-0.008020908571779728,1.093706727027893
1740033513349420800,8.1144208984375,-0.5531910061836243,0.05595141649246216,1.118080496788025
1740033513359460900,8.1244609375,-0.5898798108100891,0.024101341143250465,1.1253011226654053
1740033513369499600,8.134499755859375,-0.6183244585990906,-0.08359555900096893,1.1421096324920654
1740033513379538700,8.14453857421875,-0.6810458898544312,-0.33092600107192993,1.1357955932617188
1740033513389578000,8.154577880859375,-0.7475948333740234,-0.3989796042442322,1.161777377128601
1740033513399616800,8.16461669921875,-0.8012210726737976,-0.48351845145225525,1.0769860744476318
1740033513409656800,8.17465673828125,-0.8290731906890869,-0.5378972887992859,0.9118618369102478
1740033513419695900,8.18469580078125,-0.8785153031349182,-0.45588016510009766,0.7093912959098816
1740033513429734700,8.194734619140625,-0.964597761631012,-0.3729328215122223,0.4461612403392792
1740033513439773700,8.204773681640624,-1.063132882118225,-0.2674538195133209,0.1703144758939743
1740033513449813800,8.214813720703125,-1.155212640762329,-0.14407221972942352,-0.11414734274148941
1740033513459852800,8.224852783203126,-1.1947715282440186,-0.14200320839881897,-0.35620126128196716
1740033513469891800,8.234891845703125,-1.1699508428573608,-0.36152517795562744,-0.47097471356391907
1740033513479931000,8.244930908203125,-1.1325340270996094,-0.49465954303741455,-0.4357437491416931
1740033513489970700,8.254970703125,-1.1578314304351807,-0.6702699661254883,-0.3977135419845581
1740033513500009700,8.265009765625,-1.197876214981079,-0.7534316778182983,-0.395961731672287
1740033513510048800,8.275048828125,-1.1870167255401611,-0.7498223185539246,-0.42513903975486755
1740033513520087800,8.285087890625,-1.0969629287719727,-0.7434661388397217,-0.4619854688644409
1740033513530126800,8.295126953125,-0.9681013822555542,-0.8033934235572815,-0.49010685086250305
1740033513540167000,8.3051669921875,-0.7257905006408691,-0.854168713092804,-0.47994422912597656
1740033513550205700,8.315205810546875,-0.5032535791397095,-0.943169116973877,-0.45573583245277405
1740033513560244700,8.32524462890625,-0.30116623640060425,-1.032513976097107,-0.398955374956131
1740033513570283800,8.33528369140625,-0.09865227341651917,-1.0469954013824463,-0.28274649381637573
1740033513580323600,8.345323486328125,0.10489818453788757,-1.2460088729858398,-0.17585544288158417
1740033513590363000,8.35536279296875,0.3292258381843567,-1.380030870437622,-0.03669862449169159
1740033513600402000,8.36540185546875,0.49576660990715027,-1.4443778991699219,0.08644647151231766
1740033513610440700,8.375440673828125,0.6120703220367432,-1.5821938514709473,0.15536774694919586
1740033513620479700,8.385479736328126,0.7500020861625671,-1.5177067518234253,0.22396253049373627
1740033513630519800,8.395519775390625,0.8204240798950195,-1.6430801153182983,0.1849948912858963
1740033513640558600,8.40555859375,0.8866012096405029,-1.6597275733947754,0.14071157574653625
1740033513650598000,8.415597900390624,0.9300139546394348,-1.5393869876861572,0.03486237674951553
1740033513660636700,8.42563671875,0.9209365248680115,-1.1020762920379639,-0.07645110040903091
1740033513670676700,8.4356767578125,1.3526605367660522,-1.5691156387329102,-0.11820972710847855
1740033513680715800,8.4457158203125,1.606506586074829,-2.276642084121704,0.0443594753742218
1740033513690754800,8.4557548828125,1.5401161909103394,-2.3696861267089844,0.09171926975250244
1740033513700793900,8.4657939453125,1.4970070123672485,-2.1555402278900146,0.01877395436167717
1740033513710833700,8.475833740234375,1.5055192708969116,-1.8455852270126343,-0.05281367897987366
1740033513720873000,8.485873046875,1.5497959852218628,-1.4534920454025269,-0.11448929458856583
1740033513730911700,8.495911865234374,1.6165627241134644,-1.2744554281234741,-0.17254753410816193
1740033513740950800,8.50595068359375,1.6897999048233032,-1.45765221118927,-0.2437516748905182
1740033513750989600,8.515989501953126,1.8577953577041626,-1.9398592710494995,-0.3184964954853058
1740033513761029600,8.526029541015625,2.159923553466797,-2.571856737136841,-0.4240255653858185
1740033513771069000,8.53606884765625,2.582085132598877,-3.434694528579712,-0.5106384754180908
1740033513781107700,8.546107666015626,3.0552947521209717,-4.39567756652832,-0.546790361404419
1740033513791146800,8.556146728515625,3.396578788757324,-4.606935977935791,-0.2750869691371918
1740033513801186800,8.566186767578126,3.415560483932495,-3.4617202281951904,0.19926702976226807
1740033513811225900,8.576225830078124,3.1409263610839844,-1.859195590019226,0.5043161511421204
1740033513821264600,8.5862646484375,2.8476767539978027,-0.7814899682998657,0.5598984360694885
1740033513831304000,8.596303955078126,2.5887372493743896,-0.7506178021430969,0.41195106506347656
1740033513841344000,8.606343994140625,2.3634114265441895,-1.186002254486084,0.2196575254201889
1740033513851382800,8.6163828125,2.215231418609619,-1.3455443382263184,0.16815517842769623
1740033513861421800,8.626421875,2.0756406784057617,-1.3692599534988403,0.15001319348812103
1740033513871460600,8.636460693359375,1.9642442464828491,-1.1915147304534912,0.14534734189510345
1740033513881499600,8.646499755859375,1.847012996673584,-1.1067423820495605,0.15728363394737244
1740033513891539700,8.656539794921875,1.787899374961853,-1.0389273166656494,0.04339328035712242
1740033513901578800,8.666578857421875,1.8034367561340332,-1.106711745262146,-0.14010250568389893
1740033513911617800,8.67661767578125,1.8607207536697388,-1.0125818252563477,-0.1967223882675171
1740033513921656800,8.68665673828125,1.8010460138320923,-0.9841919541358948,-0.16290396451950073
1740033513931697000,8.69669677734375,1.6323270797729492,-0.5346660614013672,-0.03629622235894203
1740033513941735700,8.706735595703124,1.2875473499298096,-0.4344047009944916,0.024087758734822273
1740033513951774700,8.716774658203125,0.7936608791351318,-0.2618478536605835,0.11614551395177841
1740033513961813800,8.726813720703126,0.39951223134994507,0.3120782673358917,0.02642708085477352
1740033513971853800,8.736853759765625,0.13829049468040466,0.65848708152771,-0.21012873947620392
1740033513981892900,8.746892822265625,-0.11713088303804398,1.0107721090316772,-0.2521933615207672
1740033513991931600,8.756931640625,-0.32379963994026184,0.3539186716079712,-0.23919421434402466
1740033514001970700,8.766970703125,-0.22447092831134796,-0.6130836606025696,-0.29905593395233154
1740033514012010000,8.777010009765625,0.13533945381641388,-1.362400770187378,-0.11093583703041077
1740033514022049800,8.7870498046875,0.3661036789417267,-1.5052239894866943,0.23946265876293182
1740033514032088800,8.7970888671875,0.3757387399673462,-1.0392682552337646,0.4056204557418823
1740033514042128000,8.8071279296875,0.26981309056282043,-0.4787881672382355,0.18067683279514313
1740033514052166700,8.817166748046875,0.08826833963394165,0.11579743772745132,-0.03837002441287041
1740033514062206700,8.827206787109375,-0.08968674391508102,0.1427566260099411,-0.17046335339546204
1740033514072245800,8.837245849609374,-0.1711065024137497,0.014845258556306362,-0.2403912991285324
1740033514082284800,8.847284912109375,-0.1084737479686737,-0.24794109165668488,-0.19978049397468567
1740033514092323800,8.85732373046875,0.009649964049458504,-0.37462419271469116,-0.08918020874261856
1740033514102364000,8.867364013671875,0.08949419856071472,-0.42405620217323303,-0.013478524051606655
1740033514112402700,8.877402587890625,0.11469276249408722,-0.5685537457466125,0.04482552781701088
1740033514122441700,8.887441650390626,0.162455752491951,-0.5905751585960388,0.07090559601783752
1740033514132480800,8.897480712890625,0.22762836515903473,-0.37325799465179443,0.05788114294409752
1740033514142519800,8.907519775390625,0.21252530813217163,-0.1539466828107834,0.002094842493534088
1740033514152559900,8.917559814453124,0.10998881608247757,-0.09654225409030914,-0.040527187287807465
1740033514162599000,8.927598876953125,0.011184743605554104,-0.08796927332878113,-0.02202354371547699
1740033514172637700,8.9376376953125,-0.02606169506907463,-0.14215368032455444,0.006543386727571487
1740033514182676700,8.9476767578125,-0.03362347558140755,-0.27376922965049744,0.024265125393867493
1740033514192716800,8.957716796875,-0.0158894844353199,-0.5042253136634827,0.09136666357517242
1740033514202755600,8.967755615234376,0.0252185370773077,-0.6272575259208679,0.13900528848171234
1740033514212795000,8.977794921875,0.07684897631406784,-0.6335079669952393,0.15177567303180695
1740033514222834000,8.987833984375,0.10680367797613144,-0.5974253416061401,0.1478152871131897
1740033514232873700,8.997873779296874,0.09475287050008774,-0.4304334223270416,0.10815629363059998
1740033514242912800,9.007912841796875,0.04862559214234352,-0.2321309745311737,0.03605600446462631
1740033514252951800,9.017951904296876,-0.02894376777112484,-0.32021743059158325,0.007458448875695467
1740033514262990600,9.027990478515624,-0.08881402760744095,-0.5676011443138123,0.028125910088419914
1740033514273030000,9.03802978515625,-0.08189113438129425,-0.6997732520103455,0.045531000941991806
1740033514283070000,9.048070068359374,-0.04332776740193367,-0.8074853420257568,0.06549272686243057
1740033514293109200,9.058109130859375,-0.019300194457173347,-0.857009768486023,0.10366860777139664
1740033514303148000,9.06814794921875,-0.0023044333793222904,-0.7329357266426086,0.10641725361347198
1740033514313187000,9.07818701171875,0.005363872740417719,-0.528781533241272,0.06811247766017914
1740033514323227100,9.08822705078125,-0.021693844348192215,-0.49271008372306824,0.0320625938475132
1740033514333266200,9.09826611328125,-0.09305936843156815,-0.5486098527908325,0.07045818865299225
1740033514343305200,9.10830517578125,-0.15521728992462158,-0.8058152794837952,0.1460064798593521
1740033514353344300,9.11834423828125,-0.17373983561992645,-1.090718388557434,0.2262272834777832
1740033514363384300,9.12838427734375,-0.1127353385090828,-1.3620798587799072,0.30917888879776
1740033514373423000,9.138423095703125,0.0014056164072826505,-1.2936240434646606,0.3454708456993103
1740033514383462100,9.148462158203126,0.1654757857322693,-1.0980042219161987,0.3192126154899597
1740033514393501000,9.1585009765625,0.2797568142414093,-1.0244866609573364,0.3019430637359619
1740033514403540200,9.168540283203125,0.33355745673179626,-0.6993839144706726,0.21111170947551727
1740033514413580300,9.178580322265624,0.3262798488140106,-0.35653334856033325,0.09340424835681915
1740033514423619000,9.188619140625,0.20745012164115906,-0.03482162952423096,0.011536281555891037
1740033514433658000,9.198658203125,-0.026510436087846756,-0.05480625852942467,-0.004490888677537441
1740033514443697200,9.208697265625,-0.12561917304992676,-0.011894742958247662,0.026069683954119682
1740033514453737200,9.2187373046875,-0.07678505778312683,0.15155383944511414,0.004493551794439554
1740033514463776000,9.22877587890625,-0.014344051480293274,0.20562666654586792,-0.035235218703746796
1740033514473815300,9.238815185546875,0.030377347022294998,0.3516600430011749,-0.07991427183151245
1740033514483854000,9.24885400390625,0.03329271078109741,0.41995465755462646,-0.09271182864904404
1740033514493894100,9.25889404296875,0.022816631942987442,0.2755357027053833,-0.05330849438905716
1740033514503933200,9.26893310546875,0.060979198664426804,0.007246727589517832,-0.020808342844247818
1740033514513972000,9.278971923828125,0.07569209486246109,-0.07827536016702652,0.07178417593240738
1740033514524011000,9.289010986328124,0.04887193441390991,-0.1367780864238739,0.0203915573656559
1740033514534050300,9.29905029296875,0.061949919909238815,-0.19559240341186523,0.06545037776231766
1740033514544090000,9.309090087890626,0.0560171976685524,-0.39170733094215393,0.0862126499414444
1740033514554129200,9.319129150390625,0.005243231542408466,-0.598932683467865,0.1322174221277237
1740033514564168200,9.329168212890625,0.010493920184671879,-0.5507100224494934,0.15777231752872467
1740033514574207000,9.33920703125,0.03436196967959404,-0.4469015896320343,0.15824902057647705
1740033514584247000,9.3492470703125,0.12141750752925873,1.0785176753997803,0.05236547067761421
1740033514594286000,9.3592861328125,0.12760642170906067,1.0520069599151611,-0.22854715585708618
1740033514604325000,9.3693251953125,-0.031216243281960487,0.716909646987915,-0.18334132432937622
1740033514614364200,9.3793642578125,-0.022913571447134018,0.9980148077011108,-0.18476586043834686
1740033514624404200,9.389404296875,-0.052436310797929764,0.5078621506690979,-0.1561528444290161
1740033514634443000,9.399443115234375,-0.03380483388900757,-0.06318216770887375,0.056233711540699005
1740033514644482000,9.40948193359375,0.03549354523420334,-0.0683649405837059,0.11474496126174927
1740033514654521300,9.419521240234374,0.09642454236745834,0.6061480045318604,0.07473442703485489
1740033514664560000,9.42956005859375,0.01882588490843773,0.258526086807251,0.043417513370513916
1740033514674600200,9.43960009765625,-0.06865043193101883,0.2184114307165146,0.061295315623283386
1740033514684639200,9.44963916015625,-0.11439315229654312,-0.0815659686923027,0.2080296277999878
1740033514694678000,9.459677978515625,-0.1383323073387146,0.05178916081786156,0.11802730709314346
1740033514704717000,9.469717041015626,-0.09863283485174179,-0.09322129189968109,0.12365908920764923
1740033514714757000,9.479757080078125,-0.052864812314510345,0.027715250849723816,0.1580258458852768
1740033514724796200,9.489796142578125,-0.026440661400556564,0.10796748101711273,0.16456471383571625
1740033514734835200,9.499835205078124,-0.021689582616090775,0.057126935571432114,0.14111770689487457
1740033514744874200,9.509874267578125,-0.02816399373114109,-0.006055495701730251,0.10100038349628448
1740033514754914000,9.5199140625,-0.06265752017498016,-0.14862889051437378,0.06635025888681412
1740033514764953000,9.529953125,-0.08675114065408707,-0.08826860785484314,0.03429592028260231
1740033514774992100,9.5399921875,-0.08309035748243332,0.2964947819709778,0.06933566182851791
1740033514785031200,9.55003125,-0.03002181462943554,0.5019331574440002,0.07514987885951996
1740033514795070200,9.5600703125,-0.03783206641674042,0.7971112728118896,-0.01095438003540039
1740033514805110300,9.5701103515625,-0.057257961481809616,1.4286596775054932,-0.08368610590696335
1740033514815149000,9.580149169921874,-0.0605192705988884,1.8606995344161987,-0.029644444584846497
1740033514825188000,9.59018798828125,-0.09179916232824326,1.5885028839111328,0.05419585853815079
1740033514835227100,9.60022705078125,-0.1534196436405182,1.6385923624038696,0.04031306877732277
1740033514845267000,9.610266845703125,-0.2516447603702545,0.7799322605133057,0.02227015234529972
1740033514855306200,9.62030615234375,-0.2889883816242218,0.6453771591186523,0.05733892321586609
1740033514865345300,9.63034521484375,-0.19662198424339294,0.7910970449447632,0.049132391810417175
1740033514875384000,9.640384033203125,-0.027636954560875893,0.7631293535232544,0.05161925032734871
1740033514885424000,9.650424072265626,0.04887699335813522,0.7502092719078064,0.0026160231791436672
1740033514895463200,9.660463134765624,0.027119236066937447,0.8540651202201843,-0.12462874501943588
1740033514905502200,9.670502197265625,0.09776251018047333,1.663367509841919,-0.31156960129737854
1740033514915541200,9.680541259765626,0.12600266933441162,2.158862829208374,-0.3967292308807373
1740033514925581300,9.690581298828125,0.14858494699001312,0.27978983521461487,0.2511446177959442
1740033514935620000,9.7006201171875,-0.008979113772511482,-0.37278714776039124,0.4543682932853699
1740033514945659100,9.7106591796875,-0.16095292568206787,-0.1394822597503662,0.36516520380973816
1740033514955698200,9.7206982421875,-0.09589430689811707,-0.4547715187072754,0.28159651160240173
1740033514965737200,9.7307373046875,0.052372392266988754,-0.5639645457267761,0.08512900769710541
1740033514975777000,9.740777099609375,0.2009645253419876,-0.13479216396808624,-0.02972567081451416
1740033514985816300,9.75081640625,0.31324899196624756,0.18513309955596924,-0.039494145661592484
1740033514995855000,9.760855224609376,0.3061002790927887,0.24680738151073456,-0.03223463520407677
1740033515005894100,9.77089404296875,0.2306382656097412,0.24718768894672394,-0.005230714567005634
1740033515015934200,9.780934326171876,0.1045069694519043,0.18323107063770294,0.00015632755821570754
1740033515025973000,9.790972900390624,-0.016436230391263962,0.17098213732242584,-0.01378398947417736
1740033515036012300,9.80101220703125,-0.06497100740671158,0.24478551745414734,-0.029023928567767143
1740033515046051300,9.81105126953125,-0.06331532448530197,0.24384914338588715,0.01997344195842743
1740033515056091100,9.821091064453125,-0.06181782856583595,0.13721618056297302,0.09689752012491226
1740033515066130200,9.831130126953125,-0.044434577226638794,0.031324367970228195,0.12052454799413681
1740033515076169200,9.841169189453124,-0.010537595488131046,0.035107120871543884,0.10630886256694794
1740033515086208000,9.8512080078125,0.025963956490159035,0.028904618695378304,0.09618299454450607
1740033515096247300,9.861247314453125,0.03881663829088211,0.01571238413453102,0.102447010576725
1740033515106287400,9.871287353515624,0.04470142349600792,0.05422435700893402,0.0995313823223114
1740033515116326100,9.881326171875,0.04151282086968422,0.033257823437452316,0.08746246993541718
1740033515126365200,9.891365234375,0.0450095534324646,-0.005824599415063858,0.07872623950242996
1740033515136404000,9.901404052734375,0.06245006248354912,-0.030544061213731766,0.10831928253173828
1740033515146444000,9.911444091796875,0.07971666753292084,-0.07733340561389923,0.1459129899740219
1740033515156483000,9.921483154296874,0.08627070486545563,-0.06730527430772781,0.14139068126678467
1740033515166522400,9.9315224609375,0.07467211037874222,0.006684267893433571,0.09328893572092056
1740033515176561200,9.94156103515625,0.06378643959760666,0.05140326917171478,0.05470691993832588
1740033515186601200,9.951601318359375,0.03777134791016579,0.052028313279151917,0.03363465890288353
1740033515196640300,9.96164013671875,0.016083361580967903,-0.013176255859434605,0.040220655500888824
1740033515206679000,9.971678955078126,0.011996475048363209,-0.09886612743139267,0.061887070536613464
1740033515216718000,9.981718017578125,0.020532172173261642,-0.19797620177268982,0.08844012022018433
1740033515226758100,9.991758056640625,0.036682382225990295,-0.24405688047409058,0.10234128683805466
1740033515236797200,10.001797119140624,0.045456964522600174,-0.1811937540769577,0.08322112262248993
1740033515246836200,10.011836181640625,0.050510846078395844,-0.10344596207141876,0.03014085814356804
1740033515256875000,10.021875,0.04555656760931015,-0.031258586794137955,-0.019337212666869164
1740033515266914000,10.0319140625,0.02304646372795105,0.01684662513434887,-0.03994368761777878
1740033515276954000,10.0419541015625,-0.011506454087793827,-0.020312994718551636,-0.023938622325658798
1740033515286992600,10.05199267578125,-0.06077280268073082,-0.08570638298988342,0.018785672262310982
1740033515297031700,10.06203173828125,-0.0796295776963234,-0.09218452125787735,0.036485571414232254
1740033515307070500,10.072070556640625,-0.08290740102529526,-0.05844173952937126,0.01067980844527483
1740033515317110500,10.082110595703124,-0.07181692868471146,-0.03545599430799484,-0.011150655336678028
1740033515327149600,10.092149658203125,-0.0565495640039444,-0.052682917565107346,-0.005347094964236021
1740033515337188600,10.102188720703126,-0.04103025794029236,0.018388329073786736,0.06293342262506485
1740033515347227600,10.1122275390625,-0.05216493457555771,0.025782061740756035,0.11201947927474976
1740033515357267700,10.122267822265625,-0.05498814955353737,-0.04026300087571144,0.10725534707307816
1740033515367306500,10.132306396484376,-0.03567757084965706,-0.1613638550043106,0.1555112898349762
1740033515377345500,10.142345458984375,0.0028415927663445473,-0.1936054229736328,0.22487811744213104
1740033515387384600,10.152384521484375,0.04916141927242279,-0.07841118425130844,0.26925331354141235
1740033515397424400,10.16242431640625,0.12034638226032257,-0.1677919328212738,0.18130560219287872
1740033515407463400,10.17246337890625,0.3273749351501465,-0.14439259469509125,0.2114054560661316
1740033515417502700,10.182502685546876,0.492989718914032,0.06674041599035263,0.2461799532175064
1740033515427541500,10.19254150390625,0.3916367292404175,-0.24031779170036316,0.2826053202152252
1740033515437580500,10.20258056640625,0.19035983085632324,-0.3459438383579254,0.31360265612602234
1740033515447620600,10.21262060546875,0.1291276216506958,-0.40016791224479675,0.36089426279067993
1740033515457659400,10.222659423828125,0.04820720851421356,-0.4829554855823517,0.500167191028595
1740033515467698700,10.23269873046875,0.16338039934635162,-0.43349018692970276,0.7258093953132629
1740033515477737700,10.24273779296875,0.4846993088722229,-0.35105523467063904,0.7313559651374817
1740033515487777500,10.252777587890625,0.7770805954933167,-0.35961541533470154,0.6411792039871216
1740033515497816600,10.262816650390626,0.9099880456924438,-0.4643937647342682,0.6027782559394836
1740033515507855600,10.272855712890625,1.0195035934448242,-0.6358584761619568,0.5737783312797546
1740033515517894400,10.282894287109375,1.1219255924224854,-0.6183521747589111,0.541697084903717
1740033515527934500,10.2929345703125,1.1531788110733032,-0.625465989112854,0.42741790413856506
1740033515537973800,10.302973876953125,1.174404501914978,-0.739692747592926,0.41923800110816956
1740033515548012500,10.313012451171875,1.1585859060287476,-0.7920757532119751,0.49225735664367676
1740033515558051600,10.323051513671874,1.0956907272338867,-0.5991385579109192,0.5044442415237427
1740033515568090600,10.333090576171875,0.9870122075080872,-0.354836106300354,0.5093852281570435
1740033515578130400,10.34313037109375,0.943596601486206,-0.3702707290649414,0.7620824575424194
1740033515588169500,10.35316943359375,0.8589003086090088,-0.5199976563453674,0.9668081402778625
1740033515598208800,10.363208740234375,0.6854673027992249,-0.47215262055397034,1.1809803247451782
1740033515608247600,10.37324755859375,0.5788188576698303,-0.25452202558517456,1.2784888744354248
1740033515618287600,10.38328759765625,0.5049973726272583,-0.6126572489738464,1.194494605064392
1740033515628326700,10.39332666015625,0.4849339425563812,-0.8534552454948425,0.942560613155365
1740033515638365400,10.403365478515624,0.5651022791862488,-0.6852688789367676,0.5531662702560425
1740033515648404500,10.413404541015625,0.467129647731781,-1.2573009729385376,0.2963869273662567
1740033515658444500,10.423444580078124,0.39832979440689087,-0.9036566019058228,0.07133330404758453
1740033515668483600,10.433483642578125,0.43615707755088806,0.04277995601296425,-0.16988331079483032
1740033515678522600,10.443522705078125,0.4024049639701843,0.6348816156387329,-0.30018937587738037
1740033515688561700,10.453561767578124,0.3034498989582062,0.9355618357658386,-0.2845044434070587
1740033515698601500,10.4636015625,0.16389226913452148,0.8593924641609192,-0.17923873662948608
1740033515708640500,10.473640625,-0.027693413197994232,0.43638744950294495,0.019178753718733788
1740033515718679600,10.483679443359375,-0.17583467066287994,0.46282437443733215,0.15327930450439453
1740033515728718600,10.493718505859375,-0.29936912655830383,0.708698034286499,0.11264132708311081
1740033515738757600,10.503757568359376,-0.34683892130851746,0.9894793629646301,0.005340969655662775
1740033515748797700,10.513797607421875,-0.37075570225715637,0.8577898144721985,-0.13412611186504364
1740033515758836500,10.52383642578125,-0.3753451108932495,0.7401648759841919,-0.24384568631649017
1740033515768875500,10.53387548828125,-0.36794978380203247,0.8121756911277771,-0.2839305102825165
1740033515778914600,10.54391455078125,-0.35735654830932617,0.8972535729408264,-0.3510158061981201
1740033515788954600,10.55395458984375,-0.34553980827331543,0.7056452631950378,-0.3548821806907654
1740033515798993700,10.56399365234375,-0.31949731707572937,0.6979687213897705,-0.28312546014785767
1740033515809032700,10.57403271484375,-0.329132080078125,0.4327777922153473,-0.25599849224090576
1740033515819071500,10.584071533203126,-0.3145004212856293,0.3508107364177704,-0.13988520205020905
1740033515829111600,10.594111572265625,-0.2920728623867035,0.5043513178825378,-0.06601550430059433
1740033515839150600,10.604150634765626,-0.23090751469135284,0.6069823503494263,-0.04340366646647453
1740033515849189600,10.614189697265624,-0.07944396138191223,0.47059547901153564,0.07732754200696945
1740033515859228700,10.624228759765625,0.02474343031644821,-0.021631259471178055,0.2728560268878937
1740033515869268700,10.634268798828124,0.016894293949007988,-0.20672707259655,0.3265107274055481
1740033515879307500,10.6443076171875,-0.03045777417719364,0.039689622819423676,0.22112146019935608
1740033515889346600,10.6543466796875,-0.0811915248632431,0.5336726903915405,0.042035069316625595
1740033515899385300,10.66438525390625,-0.1614440232515335,0.9925665259361267,-0.05919727683067322
1740033515909424600,10.674424560546875,-0.22668001055717468,1.3362914323806763,0.023136477917432785
1740033515919464700,10.684464599609376,-0.30609068274497986,1.4794487953186035,0.061519820243120193
1740033515929503700,10.694503662109375,-0.41690027713775635,1.8313062191009521,0.024701617658138275
1740033515939542500,10.70454248046875,-0.6053863167762756,3.5278260707855225,-0.06502959877252579
1740033515949581600,10.71458154296875,-0.5885348916053772,4.112774848937988,-0.1482483297586441
1740033515959621600,10.72462158203125,-0.5099500417709351,2.657088041305542,0.011865714564919472
1740033515969660400,10.734660400390625,-0.4175895154476166,0.9781199097633362,0.5104837417602539
1740033515979699700,10.74469970703125,-0.15592701733112335,0.526238739490509,0.722668468952179
1740033515989738500,10.754738525390625,0.07918829470872879,0.5745306611061096,0.4479871094226837
1740033515999778600,10.764778564453126,0.06532760709524155,0.6906924247741699,0.08281552046537399
1740033516009817600,10.774817626953125,-0.0019225359428673983,0.6958016753196716,-0.1401432603597641
1740033516019856400,10.7848564453125,-0.04453577473759651,0.5910220146179199,-0.37617310881614685
1740033516029895400,10.7948955078125,-0.08521822839975357,0.685381293296814,-0.5876720547676086
1740033516039935500,10.804935546875,-0.09583225101232529,0.5737828612327576,-0.6771001815795898
1740033516049974800,10.814974853515626,-0.10501669347286224,0.15094876289367676,-0.5647211670875549
1740033516060013600,10.825013671875,-0.19051802158355713,-0.013498764485120773,-0.34576645493507385
1740033516070052600,10.835052490234375,-0.39952048659324646,-0.04679493606090546,-0.20488017797470093
1740033516080091400,10.84509130859375,-0.6250015497207642,0.12424818426370621,-0.2137591540813446
1740033516090131500,10.85513134765625,-0.6789382696151733,0.3693660497665405,-0.3495630621910095
1740033516100170500,10.86517041015625,-0.5896012187004089,0.6187868118286133,-0.5489890575408936
1740033516110209500,10.87520947265625,-0.4354279041290283,0.700771689414978,-0.7013240456581116
1740033516120248600,10.88524853515625,-0.26164624094963074,0.9044177532196045,-0.8064422011375427
1740033516130288600,10.89528857421875,-0.2233329564332962,1.1143009662628174,-0.9331849813461304
1740033516140327400,10.905327392578124,-0.22619985044002533,1.019579529762268,-0.9386391043663025
1740033516150366500,10.915366455078125,-0.1480371356010437,1.0099217891693115,-0.9242367148399353
1740033516160405800,10.92540576171875,-0.041300300508737564,0.7272807955741882,-1.0793019533157349
1740033516170445600,10.935445556640625,0.15660639107227325,0.7915173172950745,-1.1956865787506104
1740033516180484600,10.945484619140625,0.30251166224479675,1.0892871618270874,-1.327217698097229
1740033516190523600,10.955523681640624,0.44195717573165894,1.2396236658096313,-1.3605000972747803
1740033516200562400,10.9655625,0.648615300655365,1.2969932556152344,-1.2714810371398926
1740033516210602500,10.9756025390625,1.003282070159912,1.1643524169921875,-1.1233258247375488
1740033516220641500,10.9856416015625,1.281262755393982,0.8192034959793091,-1.0713624954223633
1740033516230680600,10.9956806640625,1.431644320487976,0.7974787950515747,-1.03425931930542
1740033516240719600,11.0057197265625,1.3575862646102905,1.1324690580368042,-1.0389915704727173
1740033516250758700,11.015758544921875,1.1405575275421143,1.0416048765182495,-1.1279637813568115
1740033516260798500,11.025798583984376,0.9389320611953735,0.8802290558815002,-1.0215494632720947
1740033516270837500,11.03583740234375,0.7769899964332581,0.7149607539176941,-0.8081559538841248
1740033516280876500,11.04587646484375,0.6211192011833191,0.8051963448524475,-0.5844711661338806
1740033516290915800,11.055915771484376,0.496158629655838,0.9081754684448242,-0.40396371483802795
1740033516300955600,11.06595556640625,0.35683882236480713,0.7392306327819824,-0.2631365656852722
1740033516310994700,11.07599462890625,0.20379893481731415,0.48249635100364685,-0.06872686743736267
1740033516321033700,11.08603369140625,0.006345513742417097,-0.03664669394493103,0.028383437544107437
1740033516331072500,11.096072509765625,-0.0807419866323471,-0.35748594999313354,0.11978312581777573
1740033516341112600,11.106112548828126,0.012802880257368088,-0.47474706172943115,0.12863068282604218
1740033516351151600,11.116151611328124,0.14093874394893646,-0.48282763361930847,0.12839418649673462
1740033516361190700,11.126190673828125,0.17970983684062958,-0.3612508773803711,0.0753227174282074
1740033516371229700,11.136229736328126,0.16581399738788605,-0.18022623658180237,0.046360041946172714
1740033516381269800,11.146269775390625,0.10683537274599075,-0.09551453590393066,0.01830124296247959
1740033516391308500,11.15630859375,0.024023044854402542,-0.2665347456932068,0.038421425968408585
1740033516401347600,11.16634765625,0.033243175595998764,-0.636517345905304,0.14134487509727478
1740033516411386600,11.17638671875,0.10258123278617859,-1.0737460851669312,0.24229413270950317
1740033516421425700,11.18642578125,0.23211073875427246,-1.4516533613204956,0.35914191603660583
1740033516431465700,11.1964658203125,0.39075177907943726,-1.7465026378631592,0.46329015493392944
1740033516441504800,11.2065048828125,0.5285964608192444,-2.0896029472351074,0.5109439492225647
1740033516451543600,11.21654345703125,0.6239290833473206,-2.34934401512146,0.518684446811676
1740033516461582600,11.22658251953125,0.6906572580337524,-2.354234218597412,0.4858359396457672
1740033516471622700,11.23662255859375,0.7645240426063538,-2.348234176635742,0.49850940704345703
1740033516481661400,11.246661376953124,0.8127807974815369,-2.398768663406372,0.5753448009490967
1740033516491700700,11.25670068359375,0.8749730587005615,-2.216344118118286,0.6180640459060669
1740033516501739800,11.26673974609375,0.9027538299560547,-2.162994623184204,0.6143909692764282
1740033516511779600,11.276779541015625,0.9281688928604126,-2.4927337169647217,0.5468143224716187
1740033516521818600,11.286818603515625,0.8659603595733643,-3.0690274238586426,0.5094286203384399
1740033516531857700,11.296857666015624,0.6345100998878479,-3.689464569091797,0.5656623244285583
1740033516541896700,11.306896728515625,0.31134456396102905,-4.283196449279785,0.6275701522827148
1740033516551936500,11.3169365234375,0.07612726092338562,-4.164280414581299,0.37381860613822937
1740033516561975800,11.326975830078124,-0.06722936779260635,-3.3705801963806152,0.04373922571539879
1740033516572014600,11.3370146484375,-0.25207191705703735,-2.659411907196045,-0.08499637991189957
1740033516582053600,11.3470537109375,-0.48585033416748047,-2.1927411556243896,-0.13415859639644623
1740033516592092700,11.3570927734375,-0.7234905958175659,-1.7998933792114258,-0.2060152143239975
1740033516602132500,11.367132568359375,-0.858940839767456,-1.6327427625656128,-0.3177023231983185
1740033516612171800,11.377171875,-0.9002435207366943,-1.8913391828536987,-0.5043582320213318
1740033516622210800,11.3872109375,-0.8471347689628601,-2.6282496452331543,-0.9053197503089905
1740033516632249600,11.39724951171875,-0.732825756072998,-3.380505323410034,-1.3778313398361206
1740033516642289700,11.40728955078125,-0.8539641499519348,-3.6851706504821777,-1.3064097166061401
1740033516652328700,11.41732861328125,-1.2561355829238892,-3.6075971126556396,-0.8250520825386047
1740033516662367500,11.427367431640626,-1.658492922782898,-3.1111927032470703,-0.318149209022522
1740033516672406800,11.43740673828125,-1.842005729675293,-2.3276121616363525,0.043357327580451965
1740033516682446600,11.447446533203125,-1.801058292388916,-1.7212393283843994,0.16511838138103485
1740033516692485600,11.457485595703124,-1.5672262907028198,-2.3792245388031006,0.18498849868774414
1740033516702524700,11.467524658203125,-1.1710337400436401,-3.9043049812316895,0.20695185661315918
1740033516712563700,11.477563720703126,-0.5594710111618042,-4.280299186706543,0.1797362118959427
1740033516722603500,11.487603515625,0.12940539419651031,-3.238182783126831,0.07352002710103989
1740033516732642600,11.497642578125,0.6842326521873474,-1.724256157875061,0.031853802502155304
1740033516742681900,11.507681884765624,1.1060874462127686,-0.5803067684173584,-0.007900266908109188
1740033516752720600,11.517720703125,1.116721510887146,-0.09561493992805481,0.05350290611386299
1740033516762759700,11.527759765625,0.8141927719116211,-0.30434444546699524,0.018261028453707695
1740033516772799700,11.5377998046875,0.3829958438873291,-0.9078103303909302,-0.04743782430887222
1740033516782838500,11.547838623046875,0.028374649584293365,-1.3449602127075195,-0.06265805661678314
1740033516792877600,11.557877685546876,-0.17761580646038055,-1.1636594533920288,-0.042097918689250946
1740033516802916900,11.567916748046875,-0.1515655517578125,-0.5419809818267822,-0.0058656120672822
1740033516812956700,11.577956787109375,-0.07766416668891907,0.029392510652542114,-0.014040451496839523
1740033516822995700,11.58799560546875,-0.048881787806749344,0.5489121079444885,-0.024819063022732735
1740033516833034800,11.59803466796875,-0.07703033834695816,0.6425496339797974,-0.030463634058833122
1740033516843073500,11.608073486328125,-0.10621671378612518,0.5914798378944397,-0.03647838160395622
1740033516853113600,11.618113525390624,-0.032227177172899246,0.6814597845077515,-0.1086987853050232
1740033516863152600,11.628152587890625,0.020715398713946342,0.6638101935386658,-0.13249759376049042
1740033516873191700,11.638191650390626,-0.02569124847650528,0.3073759377002716,-0.07129202038049698
1740033516883230700,11.648230712890625,-0.08368664234876633,-0.11953359097242355,0.027874242514371872
1740033516893270800,11.658270751953125,-0.14673803746700287,-0.19080616533756256,0.07658132910728455
1740033516903309600,11.6683095703125,-0.2816271483898163,0.1417137235403061,0.04912014305591583
1740033516913348600,11.6783486328125,-0.405007928609848,0.15137913823127747,-0.03904726728796959
1740033516923387600,11.6883876953125,-0.431824654340744,-0.15534618496894836,-0.09618432074785233
1740033516933426700,11.6984267578125,-0.4249001443386078,-0.3588108718395233,-0.026203906163573265
1740033516943466800,11.708466796875,-0.40049442648887634,-0.36080053448677063,0.0485539548099041
1740033516953505800,11.718505859375,-0.34011682868003845,-0.23306147754192352,0.03804991394281387
1740033516963544600,11.728544677734375,-0.3047785460948944,-0.009237173944711685,-0.00040986048406921327
1740033516973583600,11.73858349609375,-0.3659297823905945,0.3689093291759491,-0.052690908312797546
1740033516983623700,11.748623779296874,-0.5273026823997498,0.38081473112106323,-0.09004546701908112
1740033516993662700,11.758662841796875,-0.6629566550254822,-0.09359679371118546,-0.02377110905945301
1740033517003701800,11.76870166015625,-0.608648419380188,-0.4392831027507782,0.024348482489585876
1740033517013740500,11.778740478515624,-0.47703152894973755,-0.5638218522071838,0.023792413994669914
1740033517023780600,11.788780517578125,-0.42554011940956116,-0.5397801399230957,0.0572824627161026
1740033517033819600,11.798819580078124,-0.36826643347740173,-0.22950908541679382,0.09821312129497528
1740033517043858700,11.808858642578125,-0.2442701905965805,0.18617519736289978,0.03894473612308502
1740033517053897700,11.818897705078125,-0.13698741793632507,0.4027746021747589,-0.044315267354249954
1740033517063937800,11.828937744140624,-0.1469271332025528,0.588029682636261,-0.03471510484814644
1740033517073976800,11.838976806640625,-0.19946277141571045,0.6571120619773865,0.02280092053115368
1740033517084015600,11.849015625,-0.27102217078208923,0.31872525811195374,0.0921323224902153
1740033517094054700,11.8590546875,-0.30703049898147583,-0.1937074214220047,0.18503962457180023
1740033517104093400,11.869093505859375,-0.2219766080379486,-0.5515992641448975,0.2111804187297821
1740033517114133500,11.879133544921874,0.03713618218898773,-0.031003989279270172,0.13262009620666504
1740033517124172800,11.8891728515625,0.1696377694606781,0.8396869897842407,-0.15346066653728485
1740033517134211600,11.899211669921876,0.09332408756017685,1.2727079391479492,-0.35003629326820374
1740033517144250600,11.909250732421874,0.004691424313932657,1.4215091466903687,-0.3291983902454376
1740033517154290700,11.919290771484375,-0.03400483727455139,1.1867517232894897,-0.20159943401813507
1740033517164329700,11.929329833984376,-0.052443765103816986,0.766086757183075,-0.06247908994555473
1740033517174368500,11.939368408203125,-0.09827783703804016,0.41518840193748474,0.05723452568054199
1740033517184407800,11.94940771484375,-0.1327870786190033,0.1789170205593109,0.1436927169561386
1740033517194448000,11.95944775390625,-0.11120854318141937,-0.0465850792825222,0.1319420486688614
1740033517204486700,11.969486572265625,-0.044492632150650024,-0.2512274384498596,0.0759110078215599
1740033517214525700,11.979525634765626,0.019699135795235634,-0.26185399293899536,0.022232068702578545
1740033517224564500,11.989564453125,0.029110746458172798,-0.31452226638793945,-0.018282068893313408
1740033517234604500,11.9996044921875,-0.007708253338932991,-0.4692194163799286,-0.04300738871097565
1740033517244643600,12.0096435546875,-0.06363197416067123,-0.621953547000885,-0.043834567070007324
1740033517254682600,12.0196826171875,-0.12689828872680664,-0.632027804851532,-0.005308479070663452
1740033517264721700,12.0297216796875,-0.17265406250953674,-0.5287330746650696,0.029292641207575798
1740033517274760700,12.0397607421875,-0.2400355041027069,-0.5748622417449951,0.04098445177078247
1740033517284800800,12.04980078125,-0.3092622458934784,-0.6738652586936951,0.05890912190079689
1740033517294840300,12.05984033203125,-0.25652873516082764,-0.6374877691268921,0.057008691132068634
1740033517304879000,12.069879150390625,-0.06948666274547577,-0.4159034788608551,0.06624986231327057
1740033517314918400,12.07991845703125,0.10412880033254623,-0.25968775153160095,0.02382543869316578
1740033517324958200,12.089958251953124,0.059304602444171906,-0.7300938963890076,0.12568415701389313
1740033517334997200,12.099997314453125,0.10732858628034592,-0.8646836876869202,0.4085635244846344
1740033517345036300,12.110036376953126,0.3372536599636078,-0.6446112394332886,0.3049415349960327
1740033517355075300,12.120075439453124,0.47088417410850525,-0.32692378759384155,0.07130108028650284
1740033517365115100,12.130115234375,0.4881254732608795,0.08319395780563354,-0.03770849481225014
1740033517375154200,12.140154296875,0.4719366431236267,0.479277640581131,-0.12095518410205841
1740033517385193500,12.150193359375,0.391330748796463,0.7949775457382202,-0.13882286846637726
1740033517395232300,12.160232177734375,0.18888576328754425,0.80828857421875,-0.10856136679649353
1740033517405272300,12.170272216796874,-0.050985418260097504,0.5520738363265991,-0.02225896716117859
1740033517415311400,12.180311279296875,-0.18979257345199585,0.3286772072315216,-0.014368286356329918
1740033517425350100,12.19035009765625,-0.20752044022083282,0.14250707626342773,-0.04256370663642883
1740033517435389200,12.20038916015625,-0.09301169961690903,-0.005299157928675413,-0.01750815287232399
1740033517445428500,12.210428466796875,0.024707477539777756,-0.2712419033050537,0.07592858374118805
1740033517455468300,12.22046826171875,0.10187976062297821,-0.5370674133300781,0.16403155028820038
1740033517465507300,12.23050732421875,0.16667740046977997,-0.6610794067382812,0.15663142502307892
1740033517475546400,12.24054638671875,0.16510958969593048,-0.7883484363555908,0.08444883674383163
1740033517485585200,12.250585205078124,0.17282822728157043,-0.7882083058357239,0.09795106202363968
1740033517495625200,12.260625244140625,0.24088610708713531,-0.6807636022567749,0.14615347981452942
1740033517505664300,12.270664306640626,0.32226884365081787,-0.44158753752708435,0.14381974935531616
1740033517515703300,12.280703369140625,0.2955368459224701,-0.18401484191417694,0.10104379057884216
1740033517525742300,12.290742431640625,0.26515230536460876,-0.040656350553035736,0.03129400685429573
1740033517535782400,12.300782470703124,0.2055419683456421,0.2407100796699524,-0.06334328651428223
1740033517545821200,12.3108212890625,0.10643216967582703,0.414006769657135,-0.07504761219024658
1740033517555860200,12.320860107421876,-0.02907239831984043,0.16762281954288483,-0.04254160076379776
1740033517565899300,12.330899169921874,-0.04138312488794327,-0.17617103457450867,0.09090274572372437
1740033517575938300,12.340938232421875,0.023061908781528473,-0.15029922127723694,0.1323830783367157
1740033517585978400,12.350978271484376,0.07969029992818832,0.22348368167877197,0.07004406303167343
1740033517596017400,12.361017333984375,0.07255782186985016,0.49703532457351685,-0.0846477746963501
1740033517606056200,12.37105615234375,-0.03880465403199196,0.7490769028663635,-0.16948063671588898
1740033517616095200,12.38109521484375,-0.12682931125164032,0.35005414485931396,-0.026313096284866333
1740033517626135300,12.39113525390625,-0.08530637621879578,0.18143317103385925,0.09070167690515518
