time,seconds_elapsed,z,y,x
1740113651732162300,0.018162353515625,0.02466696687042713,0.06225687637925148,-0.018545839935541153
1740113651742201300,0.028201416015625,0.022603916004300117,0.04424109682440758,0.027555642649531364
1740113651752240400,0.038240478515625,0.023312315344810486,0.04781132936477661,0.06427610665559769
1740113651762279200,0.048279052734375,0.02595536597073078,0.06439924985170364,0.09432296454906464
1740113651772318500,0.058318359375,0.02479422651231289,0.08966998010873795,0.12975019216537476
1740113651782357200,0.068357177734375,0.013935287483036518,0.11735884100198746,0.16392818093299866
1740113651792396300,0.078396240234375,0.005196923390030861,0.13210609555244446,0.17641174793243408
1740113651802435300,0.088435302734375,0.005959158763289452,0.15116354823112488,0.16468793153762817
1740113651812474400,0.098474365234375,0.02376558631658554,0.1583564728498459,0.12766972184181213
1740113651822514200,0.10851416015625,0.04972006753087044,0.16387896239757538,0.06059949845075607
1740113651832553500,0.118553466796875,0.055071424692869186,0.17127083241939545,-0.012755144387483597
1740113651842592300,0.12859228515625,0.038367774337530136,0.19127503037452698,-0.07913945615291595
1740113651852631300,0.13863134765625,0.0196731835603714,0.19651825726032257,-0.09269068390130997
1740113651862670300,0.14867041015625,0.011435341089963913,0.18174143135547638,-0.03992638364434242
1740113651872709400,0.15870947265625,0.02037397399544716,0.1668250560760498,0.025868607684969902
1740113651882748400,0.16874853515625,0.04654493182897568,0.1538834273815155,0.05850823223590851
1740113651892787200,0.178787109375,0.0724676102399826,0.19122867286205292,0.0474499873816967
1740113651902826200,0.188826171875,0.08024133741855621,0.26293522119522095,0.0031382227316498756
1740113651912865300,0.198865234375,0.06500166654586792,0.28829917311668396,-0.040881168097257614
1740113651922903600,0.208903564453125,0.05365937575697899,0.24888275563716888,-0.07233267277479172
1740113651932942300,0.2189423828125,0.06167043372988701,0.19679932296276093,-0.08889487385749817
1740113651942981400,0.2289814453125,0.07634696364402771,0.1710299253463745,-0.09957879781723022
1740113651953020400,0.2390205078125,0.08206343650817871,0.1572834849357605,-0.10125259310007095
1740113651963059500,0.2490595703125,0.05773302912712097,0.15622074902057648,-0.08083995431661606
1740113651973098500,0.259098388671875,0.015919800847768784,0.1818118691444397,-0.03766798600554466
1740113651983137300,0.26913720703125,-0.001116270897909999,0.18786956369876862,0.011467029340565205
1740113651993176600,0.279176513671875,0.021601825952529907,0.15903179347515106,0.03817986324429512
1740113652003215600,0.289215576171875,0.04914092645049095,0.1402616947889328,0.049946628510951996
1740113652013255400,0.29925537109375,0.07042811065912247,0.10006020963191986,0.06588377803564072
1740113652023294500,0.30929443359375,0.07690843194723129,0.04830747842788696,0.07697006314992905
1740113652033333500,0.31933349609375,0.07187478989362717,0.009537710808217525,0.08230704069137573
1740113652043372300,0.329372314453125,0.051056839525699615,-0.018222616985440254,0.08634081482887268
1740113652053411600,0.33941162109375,0.02444414049386978,-0.02817644737660885,0.07683146744966507
1740113652063450400,0.349450439453125,0.019678622484207153,-0.026295131072402,0.037861622869968414
1740113652073489400,0.359489501953125,0.028097406029701233,-0.002413500100374222,-0.012644429691135883
1740113652083528400,0.369528564453125,0.01284576952457428,0.04272837936878204,-0.040266092866659164
1740113652093567500,0.3795673828125,-0.012583957053720951,0.07921874523162842,-0.019880129024386406
1740113652103606500,0.3896064453125,-0.03562008962035179,0.08548852801322937,0.051133256405591965
1740113652113645600,0.3996455078125,-0.06137418746948242,0.0702938586473465,0.1260535567998886
1740113652123684400,0.409684326171875,-0.07410549372434616,0.024344002828001976,0.14880222082138062
1740113652133723400,0.419723388671875,-0.08681009709835052,0.006799894850701094,0.11219626665115356
1740113652143762400,0.429762451171875,-0.10784702003002167,0.008624684996902943,0.06638411432504654
1740113652153801500,0.439801513671875,-0.1277000904083252,0.025521108880639076,0.02848680317401886
1740113652163840500,0.449840576171875,-0.1359710842370987,0.05647203326225281,0.005403472576290369
1740113652173879300,0.45987939453125,-0.1233341172337532,0.06616860628128052,0.013952486217021942
1740113652183918600,0.469918701171875,-0.10658128559589386,0.075160451233387,0.03174605220556259
1740113652193957600,0.47995751953125,-0.10478685051202774,0.10014542937278748,0.021667052060365677
1740113652203996400,0.489996337890625,-0.09260852634906769,0.06825368106365204,-0.029149750247597694
1740113652214036500,0.500036376953125,-0.05789661407470703,0.0123158423230052,-0.08471740782260895
1740113652224075500,0.510075439453125,-0.01496419683098793,-0.046408407390117645,-0.08863597363233566
1740113652234114300,0.5201142578125,0.021647077053785324,-0.09999600052833557,-0.03470510244369507
1740113652244153600,0.530153564453125,0.04480349272489548,-0.12847661972045898,0.04522784799337387
1740113652254192400,0.5401923828125,0.06130097806453705,-0.1285804808139801,0.09898268431425095
1740113652264231400,0.5502314453125,0.053650643676519394,-0.10855095833539963,0.0921921655535698
1740113652274270500,0.5602705078125,0.03685435280203819,-0.06792736798524857,0.04457271471619606
1740113652284309500,0.5703095703125,0.015292833559215069,-0.04363984242081642,-0.015163018368184566
1740113652294348500,0.5803486328125,-0.006431104149669409,-0.04543507844209671,-0.061094023287296295
1740113652304387300,0.59038720703125,-0.005345427431166172,-0.062463514506816864,-0.07947493344545364
1740113652314426400,0.60042626953125,0.011554725468158722,-0.07867018133401871,-0.08359617739915848
1740113652324465400,0.61046533203125,0.02890481799840927,-0.08465760946273804,-0.09028256684541702
1740113652334504400,0.62050439453125,0.009795038029551506,-0.06090700253844261,-0.08491816371679306
1740113652344543500,0.63054345703125,-0.04086366295814514,-0.011343327350914478,-0.07195957750082016
1740113652354582500,0.64058251953125,-0.07467621564865112,0.016025979071855545,-0.061584167182445526
1740113652364621300,0.650621337890625,-0.07030859589576721,0.01057259738445282,-0.0514703094959259
1740113652374660600,0.66066064453125,-0.052893925458192825,0.003062483388930559,-0.036670323461294174
1740113652384699400,0.670699462890625,-0.03789093345403671,-0.011895048432052135,-0.024178309366106987
1740113652394738400,0.680738525390625,-0.03350071236491203,-0.04064600169658661,0.005624858662486076
1740113652404777500,0.690777587890625,-0.028481677174568176,-0.047268982976675034,0.06160819157958031
1740113652414817300,0.7008173828125,0.010472379624843597,-0.040830790996551514,0.11566237360239029
1740113652424856300,0.710856201171875,0.07380464673042297,-0.049818504601716995,0.14982083439826965
1740113652434895600,0.7208955078125,0.11016478389501572,-0.04929439350962639,0.15334872901439667
1740113652444934400,0.730934326171875,0.12767907977104187,-0.05058835819363594,0.13589048385620117
1740113652454973400,0.740973388671875,0.1499074250459671,-0.03830266371369362,0.09631405025720596
1740113652465012500,0.751012451171875,0.1451994776725769,0.004858922678977251,0.046616535633802414
1740113652475051500,0.761051513671875,0.10616964846849442,0.051817893981933594,0.00885279942303896
1740113652485090600,0.771090576171875,0.08247052133083344,0.06666652113199234,0.0005745479720644653
1740113652495129300,0.78112939453125,0.09237748384475708,0.07774607092142105,0.009986958466470242
1740113652505168400,0.79116845703125,0.12813301384449005,0.08304325491189957,0.025799937546253204
1740113652515207400,0.80120751953125,0.18070274591445923,0.07132082432508469,0.03835301473736763
1740113652525246500,0.81124658203125,0.2392519861459732,0.08989521861076355,0.05205988138914108
1740113652535285500,0.821285400390625,0.30156806111335754,0.14787915349006653,0.03806550055742264
1740113652545324500,0.831324462890625,0.3665616512298584,0.15334254503250122,-0.00795505940914154
1740113652555363300,0.84136328125,0.41509324312210083,0.1296369433403015,-0.07279237359762192
1740113652565402600,0.851402587890625,0.4243324100971222,0.12356221675872803,-0.1523713618516922
1740113652575441400,0.86144140625,0.3918597102165222,0.11320438235998154,-0.2249947041273117
1740113652585480400,0.87148046875,0.29786381125450134,0.07885640859603882,-0.30136922001838684
1740113652595519500,0.88151953125,0.1675899624824524,0.045434001833200455,-0.31525200605392456
1740113652605559300,0.891559326171875,0.035029519349336624,0.0030532577075064182,-0.23183487355709076
1740113652615598300,0.901598388671875,-0.09331167489290237,-0.035614777356386185,-0.09601925313472748
1740113652625637600,0.9116376953125,-0.19606110453605652,-0.06277727335691452,0.01687042787671089
1740113652635676400,0.921676513671875,-0.23992229998111725,-0.0440768226981163,0.076100192964077
1740113652645715500,0.931715576171875,-0.24596235156059265,0.023120330646634102,0.08075419068336487
1740113652655754500,0.94175439453125,-0.21699407696723938,0.07022099196910858,0.06588256359100342
1740113652665793500,0.95179345703125,-0.16522729396820068,0.07544035464525223,0.06649497151374817
1740113652675832600,0.96183251953125,-0.1074441522359848,0.03276719152927399,0.10153365135192871
1740113652685871400,0.971871337890625,-0.04249078035354614,-0.028359483927488327,0.16978506743907928
1740113652695910400,0.981910400390625,0.012981000356376171,-0.09042418003082275,0.25488293170928955
1740113652705949400,0.991949462890625,0.029265638440847397,-0.11059757322072983,0.3422797918319702
1740113652715988500,1.001988525390625,0.05239785835146904,-0.091934934258461,0.38119444251060486
1740113652726027500,1.012027587890625,0.08294465392827988,-0.0736619159579277,0.3172982335090637
1740113652736066300,1.02206640625,0.0953400731086731,-0.038332417607307434,0.180047407746315
1740113652746105300,1.032105224609375,0.10090663284063339,0.007455109618604183,0.021025650203227997
1740113652756144600,1.04214453125,0.10867241024971008,0.05554034560918808,-0.15013517439365387
1740113652766183400,1.052183349609375,0.09546517580747604,0.0867987647652626,-0.29173216223716736
1740113652776222500,1.062222412109375,0.04002083092927933,0.09854277223348618,-0.37600070238113403
1740113652786261500,1.072261474609375,-0.0274752676486969,0.0994914248585701,-0.40109288692474365
1740113652796301300,1.08230126953125,-0.09122762084007263,0.07850997895002365,-0.370027095079422
1740113652806340400,1.09234033203125,-0.14906197786331177,0.0361982025206089,-0.2856932282447815
1740113652816379600,1.102379638671875,-0.1971416175365448,0.035388603806495667,-0.16014836728572845
1740113652826418400,1.11241845703125,-0.2450527846813202,0.07154060155153275,-0.028480229899287224
1740113652836457500,1.12245751953125,-0.2740974724292755,0.09499692171812057,0.06226804852485657
1740113652846496300,1.132496337890625,-0.2720996141433716,0.10182403028011322,0.09745867550373077
1740113652856535600,1.14253564453125,-0.24315771460533142,0.08694308996200562,0.08229809999465942
1740113652866574600,1.15257470703125,-0.19029174745082855,0.05208748206496239,0.0578981451690197
1740113652876613400,1.16261328125,-0.13166651129722595,0.017651477828621864,0.0433274582028389
1740113652886652400,1.17265234375,-0.07678399980068207,-0.007125532254576683,0.04497119039297104
1740113652896691500,1.18269140625,-0.027532298117876053,-0.017588024958968163,0.04336849972605705
1740113652906730500,1.19273046875,0.013749589212238789,-0.032070331275463104,0.036209966987371445
1740113652916769500,1.20276953125,0.036024536937475204,-0.03968404605984688,0.015987254679203033
1740113652926808300,1.212808349609375,0.04229656606912613,-0.029043048620224,-0.018679799512028694
1740113652936847000,1.22284716796875,0.029774915426969528,-0.0010801240568980575,-0.05000416561961174
1740113652946886400,1.232886474609375,0.031337447464466095,0.012007022276520729,-0.0840747207403183
1740113652956925200,1.24292529296875,0.03955782949924469,0.043987859040498734,-0.12659740447998047
1740113652966964200,1.252964111328125,0.04008045420050621,0.02466900274157524,-0.15397587418556213
1740113652977003300,1.263003173828125,0.04080749675631523,-0.015339401550590992,-0.14460422098636627
1740113652987042300,1.273042236328125,0.03849916160106659,-0.036527328193187714,-0.11162279546260834
1740113652997082000,1.28308203125,0.03158985823392868,-0.020217332988977432,-0.08800215274095535
1740113653007121400,1.293121337890625,0.021181102842092514,-0.015589599497616291,-0.09047470986843109
1740113653017160200,1.30316015625,0.01039050705730915,-0.015124612487852573,-0.08458726108074188
1740113653027199200,1.31319921875,0.005869427230209112,-0.01035326812416315,-0.04906684532761574
1740113653037238300,1.32323828125,0.017856581136584282,-0.0027595299761742353,0.016013354063034058
1740113653047277300,1.33327734375,0.04965915530920029,0.0062903473153710365,0.09509535133838654
1740113653057316400,1.34331640625,0.08745554089546204,-0.00578495766967535,0.15575070679187775
1740113653067355100,1.353355224609375,0.12189121544361115,-0.020030617713928223,0.16909465193748474
1740113653077394200,1.363394287109375,0.13908645510673523,-0.029469924047589302,0.13860198855400085
1740113653087433200,1.37343310546875,0.1330350935459137,-0.037393778562545776,0.07183613628149033
1740113653097472300,1.38347216796875,0.11215618997812271,-0.03986785560846329,-0.003996843472123146
1740113653107511300,1.39351123046875,0.08916251361370087,-0.04956011846661568,-0.03710358589887619
1740113653117550000,1.403550048828125,0.0717017650604248,-0.06903980672359467,-0.007839705795049667
1740113653127589000,1.413589111328125,0.0902082547545433,-0.12557484209537506,0.07357533276081085
1740113653137628400,1.42362841796875,0.14942950010299683,-0.19665966928005219,0.17177380621433258
1740113653147667200,1.433667236328125,0.23061664402484894,-0.24214591085910797,0.21934063732624054
1740113653157706200,1.443706298828125,0.2889276444911957,-0.23617909848690033,0.15019352734088898
1740113653167745300,1.453745361328125,0.2708814740180969,-0.19168177247047424,-0.0016163166146725416
1740113653177784300,1.463784423828125,0.18311859667301178,-0.11997456103563309,-0.1070021316409111
1740113653187824000,1.47382421875,0.036662761121988297,-0.061474982649087906,-0.07736267149448395
1740113653197863400,1.483863525390625,-0.10117234289646149,-0.0316595584154129,0.08105705678462982
1740113653207902200,1.493902099609375,-0.16587698459625244,-0.01089012622833252,0.23837260901927948
1740113653217941200,1.503941162109375,-0.13730525970458984,-0.006301233544945717,0.2965453863143921
1740113653227980000,1.51397998046875,-0.035496290773153305,-0.019012825563549995,0.2892393171787262
1740113653238019300,1.524019287109375,0.09851104766130447,-0.06043190509080887,0.2557543218135834
1740113653248058400,1.534058349609375,0.21086667478084564,-0.09634948521852493,0.2258087694644928
1740113653258097200,1.54409716796875,0.26809534430503845,-0.1209765374660492,0.18634258210659027
1740113653268136200,1.55413623046875,0.2540302574634552,-0.13255487382411957,0.10139291733503342
1740113653278175200,1.56417529296875,0.19959738850593567,-0.1175607442855835,-0.02700580097734928
1740113653288214300,1.57421435546875,0.11839237809181213,-0.08526494354009628,-0.16613276302814484
1740113653298253300,1.58425341796875,0.028980739414691925,-0.03740820661187172,-0.2693377137184143
1740113653308292000,1.5942919921875,-0.06961307674646378,0.013332250528037548,-0.2949376106262207
1740113653318331100,1.6043310546875,-0.16504985094070435,0.03641786053776741,-0.23044222593307495
1740113653328370400,1.614370361328125,-0.22001302242279053,0.05629336088895798,-0.11523662507534027
1740113653338409200,1.6244091796875,-0.23065900802612305,0.04187873378396034,-0.01218320894986391
1740113653348448300,1.6344482421875,-0.19780462980270386,0.031772270798683167,0.03849951922893524
1740113653358487000,1.644487060546875,-0.1337265819311142,0.012414820492267609,0.03624621778726578
1740113653368526300,1.6545263671875,-0.08338738232851028,0.008245527744293213,0.009995179250836372
1740113653378566100,1.664566162109375,-0.04743551090359688,0.012136139906942844,-0.021409349516034126
1740113653388605400,1.67460546875,-0.024465858936309814,0.02583855390548706,-0.03668992593884468
1740113653398644200,1.684644287109375,-0.017603959888219833,0.04039885476231575,-0.012096966616809368
1740113653408683300,1.694683349609375,-0.02804783172905445,0.03930236026644707,0.05725456401705742
1740113653418722000,1.70472216796875,-0.04748464375734329,0.02235507033765316,0.15613320469856262
1740113653428761300,1.71476123046875,-0.05720261484384537,-0.007398111745715141,0.24886097013950348
1740113653438800400,1.72480029296875,-0.04127611219882965,-0.04348447546362877,0.2941666841506958
1740113653448839200,1.734839111328125,0.003000158816576004,-0.07744818925857544,0.26979994773864746
1740113653458878200,1.744878173828125,0.05988873913884163,-0.08493592590093613,0.22752678394317627
1740113653468917200,1.754917236328125,0.08349934220314026,-0.06324969232082367,0.21638457477092743
1740113653478956300,1.764956298828125,0.05863339826464653,-0.03895900398492813,0.2502514719963074
1740113653488995300,1.774995361328125,0.03793780505657196,-0.007218572311103344,0.2684563100337982
1740113653499034000,1.7850341796875,0.04225106164813042,-0.009473737329244614,0.2306668758392334
1740113653509073200,1.7950732421875,0.04750437289476395,-0.031393714249134064,0.16565382480621338
1740113653519112400,1.805112548828125,0.05903159826993942,-0.044577695429325104,0.12232712656259537
1740113653529151200,1.815151123046875,0.08906629681587219,-0.028297552838921547,0.10100135952234268
1740113653539190300,1.825190185546875,0.1110251247882843,-0.011012570932507515,0.07677112519741058
1740113653549229000,1.83522900390625,0.11158708482980728,0.000005329493433237076,0.0422823503613472
1740113653559269000,1.84526904296875,0.09372127056121826,0.016766466200351715,0.0021839349064975977
1740113653569308200,1.85530810546875,0.06896156072616577,0.02084805630147457,-0.0446234829723835
1740113653579347200,1.86534716796875,0.06328742951154709,0.019230451434850693,-0.08165420591831207
1740113653589386200,1.87538623046875,0.10247160494327545,0.018095580860972404,-0.10672348737716675
1740113653599425300,1.88542529296875,0.1616230607032776,0.032477982342243195,-0.14563067257404327
1740113653609464000,1.895464111328125,0.20512138307094574,0.07214557379484177,-0.1872987151145935
1740113653619503400,1.90550341796875,0.2260250598192215,0.15521197021007538,-0.24033184349536896
1740113653629542400,1.91554248046875,0.22092746198177338,0.21234169602394104,-0.3017541468143463
1740113653639581200,1.925581298828125,0.18284718692302704,0.23177531361579895,-0.3328457474708557
1740113653649620200,1.9356201171875,0.14081688225269318,0.24783670902252197,-0.32209187746047974
1740113653659659300,1.9456591796875,0.12717750668525696,0.2281612753868103,-0.27363619208335876
1740113653669698300,1.9556982421875,0.1490323841571808,0.18236544728279114,-0.20906005799770355
1740113653679737300,1.9657373046875,0.18449662625789642,0.13439631462097168,-0.1290123611688614
1740113653689776000,1.975776123046875,0.22511211037635803,0.11307466775178909,-0.0435432568192482
1740113653699815200,1.985815185546875,0.22221246361732483,0.11494820564985275,-0.028234079480171204
1740113653709854200,1.995854248046875,0.14983372390270233,0.12635517120361328,-0.07058687508106232
1740113653719893200,2.005893310546875,0.05968040972948074,0.14895635843276978,-0.08973207324743271
1740113653729932300,2.015932373046875,-0.02200896292924881,0.15415813028812408,-0.06762361526489258
1740113653739972400,2.025972412109375,-0.09773488342761993,0.14365701377391815,-0.0424191877245903
1740113653750011100,2.03601123046875,-0.17555800080299377,0.11150383949279785,-0.004060114733874798
1740113653760050200,2.04605029296875,-0.22547654807567596,0.059334646910429,0.05955534800887108
1740113653770089200,2.056089111328125,-0.2138705998659134,-0.0035730223171412945,0.1305338740348816
1740113653780128300,2.066128173828125,-0.1947440505027771,-0.048240888863801956,0.19421032071113586
1740113653790167300,2.076167236328125,-0.18119198083877563,-0.04531320929527283,0.221439927816391
1740113653800206000,2.0862060546875,-0.13904881477355957,-0.028026364743709564,0.2046004980802536
1740113653810245400,2.096245361328125,-0.06987615674734116,0.0028746880125254393,0.13280943036079407
1740113653820284200,2.1062841796875,0.012010184116661549,0.04313502460718155,0.010333588346838951
1740113653830323200,2.1163232421875,0.08898413181304932,0.06929483264684677,-0.12008388340473175
1740113653840362200,2.1263623046875,0.1426396369934082,0.06737042963504791,-0.2393418252468109
1740113653850401300,2.1364013671875,0.15682333707809448,0.04132421314716339,-0.3247525691986084
1740113653860440300,2.1464404296875,0.1317794919013977,0.01707000657916069,-0.3659202456474304
1740113653870479400,2.156479248046875,0.06762219965457916,0.03175722062587738,-0.3572147488594055
1740113653880518100,2.16651806640625,-0.01281858142465353,0.07064203917980194,-0.3047187924385071
1740113653890557200,2.17655712890625,-0.09439485520124435,0.1173822209239006,-0.2319575697183609
1740113653900596200,2.18659619140625,-0.18246400356292725,0.12429418414831161,-0.15518130362033844
1740113653910635300,2.19663525390625,-0.2645135223865509,0.10054972022771835,-0.10259486734867096
1740113653920675300,2.20667529296875,-0.30829668045043945,0.05791756883263588,-0.07613689452409744
1740113653930714600,2.216714599609375,-0.3246130645275116,0.012499558739364147,-0.08469964563846588
1740113653940753400,2.22675341796875,-0.3175671398639679,-0.023288797587156296,-0.1068028137087822
1740113653950792400,2.23679248046875,-0.2813319265842438,-0.033119626343250275,-0.12844255566596985
1740113653960831700,2.246831787109375,-0.22231628000736237,-0.029919037595391273,-0.14158391952514648
1740113653970870500,2.25687060546875,-0.16948096454143524,-0.03536742553114891,-0.1159934252500534
1740113653980909600,2.26690966796875,-0.11330875754356384,-0.04374147206544876,-0.055800121277570724
1740113653990948600,2.276948486328125,-0.043745968490839005,-0.05376964062452316,0.006196712609380484
1740113654000987600,2.286987548828125,0.04551759734749794,-0.05692495405673981,0.030789140611886978
1740113654011026700,2.297026611328125,0.14410191774368286,-0.06100861728191376,0.004435332491993904
1740113654021065500,2.3070654296875,0.22053997218608856,-0.04333028942346573,-0.04348772019147873
1740113654031104500,2.3171044921875,0.24639315903186798,-0.026337753981351852,-0.060639966279268265
1740113654041143600,2.3271435546875,0.2244495153427124,-0.04618549346923828,-0.022680863738059998
1740113654051182600,2.3371826171875,0.1965619921684265,-0.07632195204496384,0.06926180422306061
1740113654061221600,2.3472216796875,0.19316859543323517,-0.09600697457790375,0.17289471626281738
1740113654071260700,2.3572607421875,0.21295347809791565,-0.09012092649936676,0.22880993783473969
1740113654081299500,2.367299560546875,0.2481069564819336,-0.08578316867351532,0.21422220766544342
1740113654091338800,2.3773388671875,0.2646287679672241,-0.0662306547164917,0.1465533971786499
1740113654101378600,2.387378662109375,0.25714796781539917,-0.03338029608130455,0.06133677065372467
1740113654111417600,2.39741748046875,0.2332545667886734,-0.022427352145314217,-0.00507507985457778
1740113654121456600,2.40745654296875,0.20497046411037445,-0.04487939924001694,-0.015043823979794979
1740113654131495400,2.417495361328125,0.19391615688800812,-0.05724306404590607,0.011484114453196526
1740113654141534500,2.427534423828125,0.21652638912200928,-0.09417391568422318,0.029951538890600204
1740113654151573800,2.43757373046875,0.2276720553636551,-0.13857802748680115,0.05712331086397171
1740113654161612500,2.447612548828125,0.21453946828842163,-0.1585773080587387,0.10186148434877396
1740113654171651600,2.457651611328125,0.18453629314899445,-0.18672478199005127,0.14136362075805664
1740113654181690600,2.467690673828125,0.1557006537914276,-0.23391734063625336,0.17525526881217957
1740113654191729700,2.477729736328125,0.16186173260211945,-0.2950569689273834,0.22029507160186768
1740113654201768700,2.487768798828125,0.2211112082004547,-0.3458873927593231,0.2662639021873474
1740113654211807500,2.497807373046875,0.2978036403656006,-0.3716314136981964,0.23596827685832977
1740113654221846500,2.507846435546875,0.2899568974971771,-0.3415515422821045,0.08659609407186508
1740113654231885600,2.517885498046875,0.18793494999408722,-0.2584037780761719,-0.014882363379001617
1740113654241924600,2.527924560546875,-0.0026190164498984814,-0.175312340259552,0.011474409140646458
1740113654251963600,2.537963623046875,-0.20567931234836578,-0.12974980473518372,0.17856764793395996
1740113654262002400,2.54800244140625,-0.3386685252189636,-0.11103737354278564,0.3893856108188629
1740113654272041500,2.55804150390625,-0.3456423580646515,-0.1114434152841568,0.4902706444263458
1740113654282081500,2.56808154296875,-0.198150634765625,-0.11627652496099472,0.44831812381744385
1740113654292120600,2.57812060546875,0.03348755091428757,-0.12986163794994354,0.2701281011104584
1740113654302159600,2.58815966796875,0.24374064803123474,-0.11319718509912491,0.009910106658935547
1740113654312198700,2.59819873046875,0.36278650164604187,-0.06160208210349083,-0.22756214439868927
1740113654322237400,2.608237548828125,0.341288685798645,-0.012782608158886433,-0.39327576756477356
1740113654332276500,2.6182763671875,0.20361249148845673,0.042251106351614,-0.4776894450187683
1740113654342315800,2.628315673828125,0.023259755223989487,0.0574638806283474,-0.4809403717517853
1740113654352354600,2.6383544921875,-0.1486477255821228,0.061793457716703415,-0.4063689112663269
1740113654362393600,2.6483935546875,-0.2961482107639313,0.038394391536712646,-0.2805153727531433
1740113654372432400,2.658432373046875,-0.3993341028690338,-0.025465426966547966,-0.1421414017677307
1740113654382471700,2.6684716796875,-0.4327288269996643,-0.07374747097492218,-0.04450831562280655
1740113654392510700,2.6785107421875,-0.40464136004447937,-0.08629626035690308,0.004435170441865921
1740113654402549500,2.688549560546875,-0.3364529609680176,-0.09538456052541733,0.014512306079268456
1740113654412588500,2.698588623046875,-0.2331455945968628,-0.08304908871650696,-0.003729536896571517
1740113654422627600,2.708627685546875,-0.1150226965546608,-0.06368497759103775,-0.035117022693157196
1740113654432666600,2.71866650390625,-0.003923432901501656,-0.035693734884262085,-0.036876875907182693
1740113654442705700,2.72870556640625,0.069831483066082,-0.010483984835445881,-0.014364112168550491
1740113654452744400,2.738744384765625,0.0951869934797287,-0.007859191857278347,0.0395798459649086
1740113654462784500,2.748784423828125,0.07832039892673492,-0.019089477136731148,0.11579632014036179
1740113654472823600,2.758823486328125,0.04871320724487305,-0.043769560754299164,0.1837674230337143
1740113654482862600,2.768862548828125,0.02892112173140049,-0.057259805500507355,0.216252401471138
1740113654492901600,2.778901611328125,0.00005443627014756203,-0.0608401782810688,0.19510918855667114
1740113654502940700,2.788940673828125,-0.020878810435533524,-0.051221106201410294,0.1406099945306778
1740113654512979500,2.7989794921875,-0.016852034255862236,-0.02920357882976532,0.06761826574802399
1740113654523018500,2.8090185546875,0.0013959449715912342,0.007254298776388168,0.002742060227319598
1740113654533057800,2.819057861328125,0.010351943783462048,0.018763955682516098,-0.011828294023871422
1740113654543096600,2.8290966796875,0.018502548336982727,0.0021157360170036554,0.025534523651003838
1740113654553135600,2.839135498046875,0.04014202952384949,-0.024425100535154343,0.0841536745429039
1740113654563174400,2.84917431640625,0.06572382152080536,-0.058133531361818314,0.14100895822048187
1740113654573213700,2.859213623046875,0.095035620033741,-0.07540562748908997,0.18255707621574402
1740113654583252700,2.869252685546875,0.12832379341125488,-0.07165642827749252,0.21114638447761536
1740113654593291500,2.87929150390625,0.15541407465934753,-0.045347023755311966,0.23418894410133362
1740113654603330600,2.88933056640625,0.1751353144645691,-0.013528106734156609,0.24662509560585022
1740113654613369300,2.899369384765625,0.18946580588817596,0.031364504247903824,0.23977088928222656
1740113654623408600,2.90940869140625,0.17700940370559692,0.08626344054937363,0.20405657589435577
1740113654633448700,2.91944873046875,0.1433391273021698,0.11480250954627991,0.15959863364696503
1740113654643487700,2.92948779296875,0.10267584770917892,0.12865227460861206,0.13585734367370605
1740113654653526500,2.939526611328125,0.08354423195123672,0.15286104381084442,0.11267586052417755
1740113654663565600,2.949565673828125,0.0990491509437561,0.17681697010993958,0.053487107157707214
1740113654673604600,2.9596044921875,0.12472214549779892,0.1827785223722458,-0.018173616379499435
1740113654683643600,2.9696435546875,0.13911518454551697,0.20285768806934357,-0.08288336545228958
1740113654693682700,2.9796826171875,0.15758855640888214,0.23834681510925293,-0.1444687694311142
1740113654703721500,2.989721435546875,0.16915732622146606,0.24327819049358368,-0.16798502206802368
1740113654713760500,2.999760498046875,0.1721193492412567,0.22084197402000427,-0.1361899971961975
1740113654723799600,3.009799560546875,0.17991414666175842,0.18241548538208008,-0.06790629029273987
1740113654733838600,3.019838623046875,0.16645070910453796,0.1520804911851883,-0.07446994632482529
1740113654743877600,3.029877685546875,0.057192668318748474,0.1765591949224472,-0.16800415515899658
1740113654753916400,3.03991650390625,-0.06522976607084274,0.21485894918441772,-0.2167244553565979
1740113654763955700,3.049955810546875,-0.16833378374576569,0.20706415176391602,-0.17463213205337524
1740113654773994800,3.059994873046875,-0.2318517565727234,0.1646408885717392,-0.06408749520778656
1740113654784033500,3.070033447265625,-0.24727758765220642,0.08342884480953217,0.0702924132347107
1740113654794072600,3.080072509765625,-0.2232421338558197,-0.015018904581665993,0.18598328530788422
1740113654804112600,3.090112548828125,-0.1811514049768448,-0.0735892653465271,0.26601818203926086
1740113654814151400,3.1001513671875,-0.16102048754692078,-0.08619194477796555,0.29665645956993103
1740113654824190700,3.110190673828125,-0.15989531576633453,-0.06482566893100739,0.29364684224128723
1740113654834229500,3.1202294921875,-0.16485804319381714,-0.02011800929903984,0.251354843378067
1740113654844268500,3.1302685546875,-0.15369939804077148,0.034625131636857986,0.1719476282596588
1740113654854307600,3.1403076171875,-0.09061208367347717,0.12076786905527115,0.06466595083475113
1740113654864346600,3.1503466796875,-0.011265065521001816,0.15984255075454712,-0.02637234702706337
1740113654874385700,3.1603857421875,0.040222831070423126,0.17847400903701782,-0.08625493943691254
1740113654884424700,3.1704248046875,0.06662328541278839,0.1862935870885849,-0.14398959279060364
1740113654894463500,3.18046337890625,0.07642529904842377,0.17603546380996704,-0.21923305094242096
1740113654904502500,3.19050244140625,0.039091240614652634,0.18959762156009674,-0.32845091819763184
1740113654914541600,3.20054150390625,-0.026422105729579926,0.19371505081653595,-0.41970160603523254
1740113654924580400,3.210580322265625,-0.11682816594839096,0.19352410733699799,-0.4332789182662964
1740113654934619400,3.220619384765625,-0.22703979909420013,0.22211730480194092,-0.36678799986839294
1740113654944658200,3.230658203125,-0.3197345733642578,0.21670043468475342,-0.2577829658985138
1740113654954697500,3.240697509765625,-0.3787139356136322,0.17494049668312073,-0.15042276680469513
1740113654964736300,3.250736328125,-0.40147864818573,0.12247994542121887,-0.06488283723592758
1740113654974776300,3.2607763671875,-0.38448095321655273,0.08176717907190323,-0.018438024446368217
1740113654984815400,3.2708154296875,-0.32676172256469727,0.04949925094842911,-0.010263718664646149
1740113654994854100,3.280854248046875,-0.25235745310783386,0.022929968312382698,-0.01124383881688118
1740113655004893200,3.29089306640625,-0.17796525359153748,0.022954735904932022,0.007217992562800646
1740113655014932500,3.300932373046875,-0.10719315707683563,0.028892941772937775,0.04891490936279297
1740113655024971300,3.31097119140625,-0.029922600835561752,0.0374281071126461,0.08360924571752548
1740113655035010300,3.32101025390625,0.04988541081547737,0.038700297474861145,0.09602969884872437
1740113655045049300,3.33104931640625,0.12799301743507385,0.04006853327155113,0.08340775966644287
1740113655055088400,3.34108837890625,0.19846311211585999,0.05149658024311066,0.0406891293823719
1740113655065127400,3.35112744140625,0.24243509769439697,0.05337783694267273,-0.03248042240738869
1740113655075166200,3.361166259765625,0.2336941808462143,0.032669611275196075,-0.11309974640607834
1740113655085205200,3.371205322265625,0.18718872964382172,0.005581268109381199,-0.16262681782245636
1740113655095244300,3.381244384765625,0.12396270036697388,-0.00762916449457407,-0.1698475331068039
1740113655105283300,3.391283447265625,0.05790139362215996,-0.021054958924651146,-0.14759336411952972
1740113655115322400,3.401322265625,0.0008231760002672672,-0.04915979877114296,-0.10724950581789017
1740113655125361400,3.411361328125,-0.026683015748858452,-0.08153451979160309,-0.06812340766191483
1740113655135400200,3.421400146484375,-0.02247549220919609,-0.10397414863109589,-0.04807193577289581
1740113655145439500,3.431439453125,0.00009586336091160774,-0.1251678466796875,-0.03194889426231384
1740113655155479600,3.4414794921875,0.01847502402961254,-0.10955920815467834,-0.012114354409277439
1740113655165518300,3.451518310546875,0.030646469444036484,-0.09038231521844864,0.030545491725206375
1740113655175557400,3.461557373046875,0.051568739116191864,-0.11829831451177597,0.0971183180809021
1740113655185596200,3.47159619140625,0.07283567637205124,-0.1911565363407135,0.17814846336841583
1740113655195635200,3.48163525390625,0.1093609631061554,-0.25364214181900024,0.25162315368652344
1740113655205674500,3.491674560546875,0.17268428206443787,-0.28211987018585205,0.27467042207717896
1740113655215713300,3.50171337890625,0.24972619116306305,-0.3189314007759094,0.25023022294044495
1740113655225752300,3.51175244140625,0.32858264446258545,-0.3271275460720062,0.15203015506267548
1740113655235791000,3.521791015625,0.3600272238254547,-0.29652148485183716,-0.05763663724064827
1740113655245830400,3.531830322265625,0.3375280499458313,-0.24489636719226837,-0.23980191349983215
1740113655255869400,3.541869384765625,0.22748106718063354,-0.19588379561901093,-0.26937779784202576
1740113655265908200,3.551908203125,0.04959229379892349,-0.18247398734092712,-0.1083361878991127
1740113655275947300,3.561947265625,-0.10955828428268433,-0.21047845482826233,0.18991157412528992
1740113655285986300,3.571986328125,-0.15240907669067383,-0.2670400142669678,0.4766237437725067
1740113655296025300,3.582025390625,-0.042093418538570404,-0.3439592719078064,0.6087934374809265
1740113655306064400,3.592064453125,0.16355375945568085,-0.37729138135910034,0.5181889533996582
1740113655316103200,3.602103271484375,0.293382853269577,-0.35310545563697815,0.2479911893606186
1740113655326143200,3.612143310546875,0.28776437044143677,-0.2457025647163391,-0.05906355753540993
1740113655336182300,3.622182373046875,0.16038671135902405,-0.11948792636394501,-0.2950957119464874
1740113655346221300,3.63222119140625,-0.045598674565553665,-0.02816467173397541,-0.41694116592407227
1740113655356260400,3.64226025390625,-0.25291311740875244,0.011748705059289932,-0.4332682192325592
1740113655366299400,3.65229931640625,-0.39976540207862854,-0.024838333949446678,-0.37267357110977173
1740113655376338200,3.662338134765625,-0.4634105861186981,-0.09483854472637177,-0.28030872344970703
1740113655386377200,3.672377197265625,-0.45227670669555664,-0.14685727655887604,-0.19036737084388733
1740113655396416500,3.68241650390625,-0.3917236328125,-0.17152629792690277,-0.11727184802293777
1740113655406455300,3.692455322265625,-0.30493733286857605,-0.16873131692409515,-0.06509599834680557
1740113655416494300,3.702494384765625,-0.20762941241264343,-0.13849009573459625,-0.024563107639551163
1740113655426533000,3.712533203125,-0.08766091614961624,-0.11023314297199249,0.017465835437178612
1740113655436572400,3.722572509765625,0.04519014060497284,-0.09377250075340271,0.0530671589076519
1740113655446611500,3.732611572265625,0.16539165377616882,-0.09674272686243057,0.08842302113771439
1740113655456650200,3.742650146484375,0.2575012147426605,-0.1254786103963852,0.1398840844631195
1740113655466689300,3.752689208984375,0.2987399995326996,-0.16365742683410645,0.18777623772621155
1740113655476728300,3.762728271484375,0.2872980237007141,-0.1866198629140854,0.23010501265525818
1740113655486767400,3.772767333984375,0.22127746045589447,-0.1761733442544937,0.2541227340698242
1740113655496807400,3.782807373046875,0.14255256950855255,-0.14397354423999786,0.2631744146347046
1740113655506846500,3.792846435546875,0.0819408968091011,-0.11008694022893906,0.2475200742483139
1740113655516885200,3.80288525390625,0.04927777126431465,-0.0850018560886383,0.2028224915266037
1740113655526924300,3.81292431640625,0.05148233473300934,-0.06641671806573868,0.13628847897052765
1740113655536963300,3.82296337890625,0.07312615215778351,-0.05508909001946449,0.048358574509620667
1740113655547002400,3.83300244140625,0.08029431849718094,-0.05296389013528824,-0.03229871764779091
1740113655557041400,3.84304150390625,0.08082880079746246,-0.05140697583556175,-0.066569983959198
1740113655567080200,3.853080078125,0.0738435909152031,-0.03425302356481552,-0.062101464718580246
1740113655577119200,3.863119140625,0.05107221007347107,-0.006069222930818796,-0.05152697116136551
1740113655587158500,3.873158447265625,0.034309208393096924,0.0413997583091259,-0.03823380172252655
1740113655597197300,3.883197265625,0.03204755857586861,0.08900688588619232,-0.018148276954889297
1740113655607236400,3.893236328125,0.05849860608577728,0.14374709129333496,-0.006167781539261341
1740113655617275100,3.903275146484375,0.10871036350727081,0.16780371963977814,-0.0292122233659029
1740113655627314400,3.913314453125,0.1552608162164688,0.17301473021507263,-0.08341420441865921
1740113655637353500,3.923353515625,0.16130571067333221,0.19597899913787842,-0.15590138733386993
1740113655647392300,3.933392333984375,0.11674011498689651,0.23830142617225647,-0.22778171300888062
1740113655657432300,3.943432373046875,0.056302353739738464,0.286027193069458,-0.2889283001422882
1740113655667471400,3.953471435546875,0.01655733771622181,0.3484117388725281,-0.3731965720653534
1740113655677510100,3.96351025390625,-0.00850844569504261,0.36452239751815796,-0.45127636194229126
1740113655687549400,3.973549560546875,-0.02951359748840332,0.33518341183662415,-0.4758189916610718
1740113655697588200,3.983588134765625,-0.0380890928208828,0.28698423504829407,-0.4309890866279602
1740113655707627300,3.993627197265625,-0.02913847379386425,0.24067024886608124,-0.31820473074913025
1740113655717666300,4.003666259765625,0.016795998439192772,0.16263173520565033,-0.17783430218696594
1740113655727705300,4.013705322265625,0.1257704198360443,0.06302285939455032,-0.0329146645963192
1740113655737744400,4.023744384765625,0.20620208978652954,0.023992571979761124,0.009310847148299217
1740113655747783400,4.033783447265625,0.18074440956115723,0.08567005395889282,-0.02243243344128132
1740113655757822200,4.043822265625,0.08834919333457947,0.18289099633693695,0.0053430418483912945
1740113655767861200,4.053861328125,-0.032968975603580475,0.1938035637140274,0.12082996219396591
1740113655777900300,4.063900390625,-0.11819729954004288,0.1495680958032608,0.2965609133243561
1740113655787939300,4.073939208984375,-0.17385470867156982,0.07350262254476547,0.44639912247657776
1740113655797978400,4.083978271484375,-0.16861611604690552,-0.010644623078405857,0.4904628098011017
1740113655808017200,4.09401708984375,-0.1095631793141365,-0.09743198752403259,0.4347585439682007
1740113655818056400,4.104056396484375,-0.07043171674013138,-0.11989720910787582,0.3039560317993164
1740113655828096500,4.114096435546875,-0.07032572478055954,-0.060743607580661774,0.12062908709049225
1740113655838135300,4.12413525390625,-0.07547832280397415,0.0658959373831749,-0.07362861931324005
1740113655848174300,4.13417431640625,-0.06406135857105255,0.17893274128437042,-0.2391057163476944
1740113655858213400,4.14421337890625,-0.03907274454832077,0.2143869698047638,-0.33057019114494324
1740113655868252200,4.154252197265625,-0.0033491041976958513,0.19123929738998413,-0.35178864002227783
1740113655878291500,4.16429150390625,0.021817248314619064,0.1278533786535263,-0.3502492308616638
1740113655888330200,4.174330322265625,0.02655208483338356,0.07842004299163818,-0.33723410964012146
1740113655898369300,4.184369384765625,0.009134368970990181,0.05896294116973877,-0.30105626583099365
1740113655908408300,4.194408203125,-0.04472753405570984,0.04179300740361214,-0.22803370654582977
1740113655918447400,4.204447265625,-0.11888469755649567,0.033228300511837006,-0.12775173783302307
1740113655928485600,4.214485595703125,-0.20216573774814606,0.03247276321053505,-0.008931078016757965
1740113655938524400,4.2245244140625,-0.26308324933052063,0.034590598195791245,0.09218857437372208
1740113655948563500,4.2345634765625,-0.27968937158584595,0.03160706162452698,0.15664133429527283
1740113655958602800,4.244602783203125,-0.2612932622432709,0.019150933250784874,0.19954532384872437
1740113655968641500,4.2546416015625,-0.2086486965417862,-0.005692364182323217,0.21343982219696045
1740113655978680600,4.2646806640625,-0.12930218875408173,-0.044334299862384796,0.2071077525615692
1740113655988719400,4.27471923828125,-0.05751507729291916,-0.08365081250667572,0.18538513779640198
1740113655998759400,4.284759521484375,0.00858465489000082,-0.0894429087638855,0.14262907207012177
1740113656008798700,4.294798828125,0.060160499066114426,-0.08311577141284943,0.08211513608694077
1740113656018837800,4.304837646484375,0.07077351212501526,-0.07407519966363907,0.02421063371002674
1740113656028876500,4.31487646484375,0.0700930804014206,-0.06519515812397003,-0.017222827300429344
1740113656038915600,4.32491552734375,0.10319512337446213,-0.05941016972064972,-0.043608248233795166
1740113656048954400,4.334954345703125,0.14808723330497742,-0.04960467666387558,-0.05892408639192581
1740113656058993700,4.34499365234375,0.18871675431728363,-0.04320056363940239,-0.0784509927034378
1740113656069032700,4.35503271484375,0.23466666042804718,-0.020018279552459717,-0.10911568999290466
1740113656079071500,4.365071533203125,0.2455492466688156,-0.02933686412870884,-0.1493455171585083
1740113656089110500,4.375110595703125,0.21106025576591492,-0.058433230966329575,-0.19169270992279053
1740113656099149600,4.385149658203125,0.15267780423164368,-0.07305663079023361,-0.22858136892318726
1740113656109188600,4.395188720703125,0.09315720945596695,-0.07271761447191238,-0.25660261511802673
1740113656119227600,4.4052275390625,0.04886888340115547,-0.07483095675706863,-0.2653953433036804
1740113656129266400,4.415266357421875,0.025042381137609482,-0.09274257719516754,-0.24180346727371216
1740113656139305500,4.425305419921875,0.02528221718966961,-0.13975028693675995,-0.1795053631067276
1740113656149344800,4.4353447265625,0.03595004230737686,-0.18448659777641296,-0.09055578708648682
1740113656159384600,4.445384521484375,0.03803680092096329,-0.19860142469406128,0.022917479276657104
1740113656169423600,4.455423583984375,0.037649042904376984,-0.20577891170978546,0.15300250053405762
1740113656179462700,4.465462646484375,0.04708041623234749,-0.21511158347129822,0.27433034777641296
1740113656189501400,4.47550146484375,0.07792168855667114,-0.21904747188091278,0.3516711890697479
1740113656199540700,4.485540771484375,0.12345543503761292,-0.23445482552051544,0.35769757628440857
1740113656209579500,4.49557958984375,0.18060633540153503,-0.3089924454689026,0.3143482506275177
1740113656219618600,4.50561865234375,0.26445308327674866,-0.3908058702945709,0.21106907725334167
1740113656229657600,4.51565771484375,0.29346129298210144,-0.38009384274482727,0.010484318248927593
1740113656239696400,4.5256962890625,0.22729960083961487,-0.2684405446052551,-0.16670085489749908
1740113656249735700,4.535735595703125,0.07367967069149017,-0.16848811507225037,-0.18385186791419983
1740113656259774700,4.545774658203125,-0.09903014451265335,-0.12367624044418335,-0.02660742588341236
1740113656269813500,4.5558134765625,-0.21812830865383148,-0.1079886257648468,0.24530823528766632
1740113656279852500,4.5658525390625,-0.20066489279270172,-0.14357581734657288,0.4755323827266693
1740113656289891600,4.5758916015625,-0.008064020425081253,-0.23463355004787445,0.5242658257484436
1740113656299930600,4.5859306640625,0.2511546015739441,-0.31400251388549805,0.3647836744785309
1740113656309969700,4.5959697265625,0.37036487460136414,-0.298718124628067,0.12027138471603394
1740113656320008400,4.606008544921875,0.28656432032585144,-0.22266212105751038,-0.0992443859577179
1740113656330048500,4.616048583984375,0.06517653912305832,-0.14523203670978546,-0.24715235829353333
1740113656340087600,4.626087646484375,-0.20042729377746582,-0.0809597298502922,-0.31418243050575256
1740113656350126600,4.636126708984375,-0.4289930760860443,-0.03852012753486633,-0.29793232679367065
1740113656360165600,4.64616552734375,-0.5797956585884094,-0.04451204091310501,-0.24697498977184296
1740113656370204700,4.65620458984375,-0.6218571066856384,-0.06641281396150589,-0.20976556837558746
1740113656380243500,4.666243408203125,-0.5675498843193054,-0.07433804124593735,-0.20907649397850037
1740113656390282800,4.67628271484375,-0.46006712317466736,-0.05988134443759918,-0.2263215184211731
1740113656400321500,4.686321533203125,-0.3311333954334259,-0.06147504970431328,-0.23937086760997772
1740113656410360600,4.696360595703125,-0.1996067762374878,-0.047001298516988754,-0.23430073261260986
1740113656420399600,4.706399658203125,-0.10489151626825333,-0.02744564786553383,-0.21783316135406494
1740113656430438400,4.7164384765625,-0.045848965644836426,-0.01138385757803917,-0.1849721521139145
1740113656440477700,4.726477783203125,-0.004761854652315378,-0.013687541708350182,-0.12756265699863434
1740113656450516500,4.7365166015625,0.0031059221364557743,-0.007999029010534286,-0.06027122959494591
1740113656460555500,4.746555419921875,-0.02032085880637169,-0.007302415557205677,-0.0021563759073615074
1740113656470594600,4.756594482421875,-0.06178148463368416,-0.024423345923423767,0.05139792710542679
1740113656480633600,4.766633544921875,-0.10965404659509659,-0.03269776701927185,0.09762918204069138
1740113656490672600,4.776672607421875,-0.13935920596122742,-0.05051244795322418,0.11784550547599792
1740113656500712700,4.786712646484375,-0.1476113200187683,-0.058189745992422104,0.10790876299142838
1740113656510751500,4.79675146484375,-0.13364623486995697,-0.06487002223730087,0.08244894444942474
1740113656520790500,4.80679052734375,-0.12089021503925323,-0.05932634323835373,0.06199730187654495
1740113656530829600,4.81682958984375,-0.10854487121105194,-0.047326408326625824,0.07487475126981735
1740113656540868600,4.82686865234375,-0.074973925948143,-0.023516498506069183,0.11483769863843918
1740113656550907600,4.83690771484375,-0.019929848611354828,-0.0192748811095953,0.1450190395116806
1740113656560946400,4.846946533203125,0.048050932586193085,-0.04004146531224251,0.16988204419612885
1740113656570985500,4.8569853515625,0.11892084032297134,-0.06394093483686447,0.188474640250206
1740113656581024800,4.867024658203125,0.14395259320735931,-0.06270913034677505,0.202422633767128
1740113656591063600,4.8770634765625,0.1207125186920166,-0.04060916230082512,0.20829303562641144
1740113656601102600,4.8871025390625,0.08818893134593964,0.0008397465571761131,0.1913910210132599
1740113656611141600,4.8971416015625,0.07510162889957428,0.0743057131767273,0.13522708415985107
1740113656621180400,4.907180419921875,0.08673492819070816,0.13477768003940582,0.0298910029232502
1740113656631219700,4.9172197265625,0.10994411259889603,0.1808418482542038,-0.10514511168003082
1740113656641258500,4.927258544921875,0.13265253603458405,0.2293538749217987,-0.25298911333084106
1740113656651297500,4.937297607421875,0.1587539166212082,0.2901408076286316,-0.404147744178772
1740113656661337600,4.947337646484375,0.17522981762886047,0.32717064023017883,-0.5464046001434326
1740113656671376400,4.95737646484375,0.17326998710632324,0.31176692247390747,-0.6297410130500793
1740113656681415700,4.967415771484375,0.16506829857826233,0.261195570230484,-0.6203282475471497
1740113656691454700,4.977454833984375,0.1767641007900238,0.1823103427886963,-0.5155330896377563
1740113656701493500,4.987493408203125,0.1993855983018875,0.10129675269126892,-0.34888601303100586
1740113656711532500,4.997532470703125,0.2245924174785614,0.04257884621620178,-0.16878922283649445
1740113656721571600,5.007571533203125,0.24280166625976562,0.07663590461015701,-0.0780102089047432
1740113656731610600,5.017610595703125,0.1462852507829666,0.18974702060222626,-0.12650051712989807
1740113656741649700,5.027649658203125,-0.007945416495203972,0.2983373999595642,-0.1518702358007431
1740113656751688400,5.0376884765625,-0.12666727602481842,0.32301318645477295,-0.12176106870174408
1740113656761727500,5.0477275390625,-0.18404734134674072,0.295756995677948,-0.05010898783802986
1740113656771766800,5.057766845703125,-0.2351888120174408,0.18771763145923615,0.056612130254507065
1740113656781805600,5.0678056640625,-0.2698253393173218,0.058268096297979355,0.16209885478019714
1740113656791844600,5.0778447265625,-0.2649639844894409,-0.02884177304804325,0.22417554259300232
1740113656801883400,5.08788330078125,-0.2644233703613281,-0.04514867439866066,0.24358117580413818
1740113656811922400,5.09792236328125,-0.28167107701301575,0.004764555022120476,0.21975760161876678
1740113656821961700,5.107961669921875,-0.3016340434551239,0.10996881872415543,0.15594618022441864
1740113656832001800,5.118001708984375,-0.30049288272857666,0.234712615609169,0.053727395832538605
1740113656842040600,5.12804052734375,-0.24352268874645233,0.2897432744503021,-0.06894415616989136
1740113656852079600,5.13807958984375,-0.12328735738992691,0.2878572344779968,-0.173969104886055
1740113656862118400,5.148118408203125,-0.010034020990133286,0.24979983270168304,-0.26190924644470215
1740113656872157700,5.15815771484375,0.04759465530514717,0.20273885130882263,-0.3227419853210449
1740113656882196700,5.16819677734375,0.04439587518572807,0.15936437249183655,-0.349839448928833
1740113656892235500,5.178235595703125,-0.01718253083527088,0.14396171271800995,-0.3262427747249603
1740113656902274600,5.188274658203125,-0.12630736827850342,0.13127292692661285,-0.26641610264778137
1740113656912313300,5.198313232421875,-0.26893216371536255,0.11619143933057785,-0.19741280376911163
1740113656922352600,5.2083525390625,-0.4098668694496155,0.12087857723236084,-0.1346152424812317
1740113656932392700,5.218392822265625,-0.5107806921005249,0.10534302890300751,-0.07159046083688736
1740113656942431700,5.228431640625,-0.5566325187683105,0.07715041190385818,-0.017284197732806206
1740113656952470500,5.238470458984375,-0.5381986498832703,0.034380316734313965,0.028879037126898766
1740113656962509600,5.248509521484375,-0.47974511981010437,0.0033648174721747637,0.07092457264661789
1740113656972548600,5.258548583984375,-0.39526113867759705,-0.01609809696674347,0.09691914916038513
1740113656982587600,5.268587646484375,-0.3155955374240875,-0.02615661732852459,0.10925647616386414
1740113656992626700,5.278626708984375,-0.24160681664943695,-0.018593506887555122,0.11592582613229752
1740113657002666800,5.288666748046875,-0.16547544300556183,-0.007684084586799145,0.12208852916955948
1740113657012705500,5.29870556640625,-0.07965721189975739,-0.019931161776185036,0.13313744962215424
1740113657022744600,5.30874462890625,-0.010479263961315155,-0.024465935304760933,0.15370389819145203
1740113657032783600,5.31878369140625,0.04829829931259155,-0.016033301129937172,0.18024124205112457
1740113657042822700,5.32882275390625,0.10858038067817688,-0.011592204682528973,0.19068168103694916
1740113657052861700,5.33886181640625,0.16047661006450653,-0.020286358892917633,0.18248286843299866
1740113657062900500,5.348900390625,0.19517196714878082,-0.03844635933637619,0.16426514089107513
1740113657072939500,5.358939453125,0.21374592185020447,-0.055912699550390244,0.14212387800216675
1740113657082978800,5.368978759765625,0.226967915892601,-0.07335507869720459,0.1221233457326889
1740113657093017600,5.379017578125,0.22551169991493225,-0.0814841166138649,0.09901297092437744
1740113657103056600,5.389056640625,0.20546528697013855,-0.08221711218357086,0.07918839156627655
1740113657113095400,5.399095458984375,0.1678217649459839,-0.059314996004104614,0.06907077133655548
1740113657123134700,5.409134765625,0.12677712738513947,-0.03643844276666641,0.06599881500005722
1740113657133173800,5.419173828125,0.09915828704833984,-0.030928362160921097,0.0638805404305458
1740113657143212500,5.429212646484375,0.09033218771219254,-0.04214494302868843,0.06174027547240257
1740113657153251600,5.43925146484375,0.09436261653900146,-0.058468256145715714,0.05920121818780899
1740113657163291600,5.449291748046875,0.09467139095067978,-0.07774476706981659,0.05638561397790909
1740113657173330400,5.459330322265625,0.10417701303958893,-0.08893696963787079,0.06091724708676338
1740113657183369700,5.46936962890625,0.13261613249778748,-0.1154126226902008,0.06894093751907349
1740113657193408800,5.47940869140625,0.1906738430261612,-0.14330124855041504,0.08519048243761063
1740113657203447600,5.489447509765625,0.2934955656528473,-0.20818933844566345,0.11191491782665253
1740113657213486600,5.499486572265625,0.3624756932258606,-0.22820059955120087,0.051617223769426346
1740113657223525600,5.509525634765625,0.28712520003318787,-0.19766998291015625,-0.08720027655363083
1740113657233564700,5.519564697265625,0.12207900732755661,-0.11461983621120453,-0.1388925015926361
1740113657243603700,5.529603759765625,-0.09952075779438019,-0.03626121208071709,-0.03517116606235504
1740113657253642500,5.539642578125,-0.2838767468929291,-0.0038132593035697937,0.22869616746902466
1740113657263681500,5.549681640625,-0.3475280702114105,-0.05304481089115143,0.522152304649353
1740113657273720600,5.559720458984375,-0.24414069950580597,-0.16579480469226837,0.6642202138900757
1740113657283759600,5.569759521484375,-0.010929753072559834,-0.24441632628440857,0.5654473900794983
1740113657293798700,5.579798583984375,0.17452372610569,-0.2384370118379593,0.26377439498901367
1740113657303837400,5.58983740234375,0.18352623283863068,-0.15421822667121887,-0.05361686646938324
1740113657313876700,5.599876708984375,0.012629062868654728,-0.04345443472266197,-0.23929457366466522
1740113657323915800,5.609915771484375,-0.27282238006591797,0.036748260259628296,-0.28550443053245544
1740113657333955600,5.61995556640625,-0.5825008749961853,0.055457498878240585,-0.22108601033687592
1740113657343994600,5.62999462890625,-0.8010043501853943,0.004241460934281349,-0.09239736199378967
1740113657354033700,5.64003369140625,-0.8579059839248657,-0.08120313286781311,-0.002150555606931448
1740113657364072400,5.650072509765625,-0.7960408329963684,-0.11096756160259247,0.016068432480096817
1740113657374111700,5.66011181640625,-0.6744193434715271,-0.10814034938812256,-0.019932975992560387
1740113657384150500,5.670150634765625,-0.5254510641098022,-0.1127585917711258,-0.07906945794820786
1740113657394189600,5.680189453125,-0.3734242618083954,-0.1084866151213646,-0.13709335029125214
1740113657404228600,5.690228515625,-0.22333547472953796,-0.09785231202840805,-0.16255712509155273
1740113657414267600,5.700267578125,-0.071207195520401,-0.09766056388616562,-0.15362541377544403
1740113657424306700,5.710306640625,0.05202288180589676,-0.0937572717666626,-0.1159634068608284
1740113657434345700,5.720345703125,0.12135374546051025,-0.09526462107896805,-0.04555289074778557
1740113657444384500,5.730384521484375,0.14590585231781006,-0.11089523136615753,0.053671009838581085
1740113657454423600,5.740423583984375,0.14690452814102173,-0.1410571187734604,0.14541132748126984
1740113657464462600,5.750462646484375,0.1298985779285431,-0.159404456615448,0.2008024901151657
1740113657474501600,5.760501708984375,0.09206944704055786,-0.158061683177948,0.20570935308933258
1740113657484540700,5.770540771484375,0.053080424666404724,-0.14599651098251343,0.17663171887397766
1740113657494579500,5.780579345703125,0.03524097427725792,-0.126226544380188,0.13059471547603607
1740113657504619500,5.79061962890625,0.038287531584501266,-0.10293177515268326,0.08727595210075378
1740113657514658800,5.800658935546875,0.05168216675519943,-0.0950927585363388,0.06978431344032288
1740113657524697600,5.810697509765625,0.06813573092222214,-0.1021203100681305,0.07632116973400116
1740113657534736600,5.820736572265625,0.08573976159095764,-0.11703374236822128,0.10446199029684067
1740113657544775700,5.830775634765625,0.10719054937362671,-0.13254082202911377,0.1325112283229828
1740113657554814500,5.840814453125,0.125627338886261,-0.12879188358783722,0.14659401774406433
1740113657564853800,5.850853759765625,0.13423104584217072,-0.10411139577627182,0.13842427730560303
1740113657574892500,5.860892578125,0.1199200227856636,-0.06517225503921509,0.11200173944234848
1740113657584931600,5.870931640625,0.1023145467042923,-0.020633624866604805,0.07452238351106644
1740113657594970600,5.880970703125,0.11785382032394409,0.020426727831363678,0.03648524731397629
1740113657605009700,5.891009765625,0.15788567066192627,0.05733228102326393,0.011329029686748981
1740113657615048700,5.901048583984375,0.20821134746074677,0.09790828824043274,0.0006772662745788693
1740113657625087500,5.91108740234375,0.24240244925022125,0.14175179600715637,-0.004585788585245609
1740113657635126500,5.92112646484375,0.25312674045562744,0.1863536238670349,-0.027680188417434692
1740113657645165600,5.93116552734375,0.2506915032863617,0.22958828508853912,-0.08835335075855255
1740113657655204600,5.94120458984375,0.24381281435489655,0.246034637093544,-0.16231518983840942
1740113657665244700,5.95124462890625,0.2252844125032425,0.2285563200712204,-0.21821440756320953
1740113657675283700,5.96128369140625,0.19979876279830933,0.20609840750694275,-0.23936976492404938
1740113657685322500,5.971322509765625,0.18406254053115845,0.18748590350151062,-0.21462446451187134
1740113657695361500,5.981361572265625,0.18366998434066772,0.16032911837100983,-0.13156767189502716
1740113657705400800,5.99140087890625,0.18739332258701324,0.15252432227134705,-0.06966404616832733
1740113657715439600,6.001439697265625,0.12111176550388336,0.17767255008220673,-0.10964129120111465
1740113657725478700,6.011478759765625,0.006310237105935812,0.26300424337387085,-0.15648217499256134
1740113657735517400,6.021517333984375,-0.08390408009290695,0.303157240152359,-0.16697263717651367
1740113657745556500,6.031556396484375,-0.13182146847248077,0.27560678124427795,-0.14200329780578613
1740113657755595800,6.041595703125,-0.14897063374519348,0.2164878249168396,-0.10051871091127396
1740113657765634600,6.051634521484375,-0.16599076986312866,0.13450084626674652,-0.08187923580408096
1740113657775673600,6.061673583984375,-0.16826777160167694,0.0658075362443924,-0.09684993326663971
1740113657785712600,6.071712646484375,-0.16306881606578827,0.037383079528808594,-0.10965167731046677
1740113657795751700,6.081751708984375,-0.1732330471277237,0.044844724237918854,-0.11127620190382004
1740113657805790700,6.091790771484375,-0.19661138951778412,0.10821869969367981,-0.10212378948926926
1740113657815829500,6.10182958984375,-0.21234667301177979,0.18908025324344635,-0.08920346200466156
1740113657825868500,6.11186865234375,-0.18953464925289154,0.23037777841091156,-0.058192480355501175
1740113657835908600,6.12190869140625,-0.14820824563503265,0.22694283723831177,-0.01797555387020111
1740113657845947400,6.131947509765625,-0.08647724241018295,0.18770311772823334,0.013723526149988174
1740113657855986700,6.141986572265625,-0.0351400189101696,0.11580603569746017,0.013856417499482632
1740113657866025700,6.152025634765625,-0.008293725550174713,0.042078226804733276,-0.0038366077933460474
1740113657876064500,6.162064453125,-0.006746162660419941,0.0030722375959157944,0.008335104212164879
1740113657886103600,6.172103515625,-0.05121561884880066,-0.0060021220706403255,0.04740261659026146
1740113657896142800,6.182142822265625,-0.13134720921516418,0.012572894804179668,0.08858733624219894
1740113657906181600,6.192181640625,-0.20351585745811462,0.048469722270965576,0.11786802858114243
1740113657916220700,6.202220703125,-0.2397332489490509,0.052429839968681335,0.12906049191951752
1740113657926259500,6.212259521484375,-0.2396966814994812,0.024897392839193344,0.1482176035642624
1740113657936298200,6.22229833984375,-0.19798332452774048,-0.009854196570813656,0.17088058590888977
1740113657946337000,6.2323369140625,-0.12180861830711365,-0.03499526530504227,0.16331876814365387
1740113657956376000,6.2423759765625,-0.020837530493736267,-0.04877765476703644,0.13232064247131348
1740113657966415000,6.2524150390625,0.07258490473031998,-0.04750502109527588,0.10004330426454544
1740113657976454100,6.2624541015625,0.15170101821422577,-0.036532796919345856,0.07483888417482376
1740113657986493200,6.2724931640625,0.20358461141586304,-0.03096284344792366,0.050794120877981186
1740113657996533200,6.282533203125,0.22981329262256622,-0.030646726489067078,0.02897430770099163
1740113658006572000,6.292572021484375,0.2369886189699173,-0.02132992446422577,0.01957828737795353
1740113658016611000,6.302611083984375,0.23375500738620758,-0.015321300365030766,0.02787936106324196
1740113658026650000,6.312650146484375,0.2302621752023697,-0.011666625738143921,0.045414380729198456
1740113658036689200,6.322689208984375,0.23025153577327728,-0.005407931283116341,0.04573502391576767
1740113658046728200,6.332728271484375,0.23343603312969208,0.005914617329835892,0.020828725770115852
1740113658056767000,6.34276708984375,0.22706389427185059,0.0078025320544838905,-0.022063612937927246
1740113658066806000,6.352805908203125,0.20091800391674042,-0.009640808217227459,-0.05891149491071701
1740113658076845000,6.362844970703125,0.1748853474855423,-0.0326787531375885,-0.08988645672798157
1740113658086884000,6.372884033203125,0.16269205510616302,-0.051713328808546066,-0.11136005073785782
1740113658096923100,6.382923095703125,0.15828905999660492,-0.053082991391420364,-0.11780303716659546
1740113658106962000,6.3929619140625,0.13971762359142303,-0.06166151538491249,-0.10468549281358719
1740113658117001000,6.4030009765625,0.10621930658817291,-0.07803916186094284,-0.05741491541266441
1740113658127040300,6.413040283203125,0.0652119591832161,-0.08890315890312195,0.029114387929439545
1740113658137079000,6.4230791015625,0.03299091011285782,-0.09420657902956009,0.1369985044002533
1740113658147118000,6.4331181640625,0.03441936895251274,-0.12000864744186401,0.24557045102119446
1740113658157158100,6.443158203125,0.0791490226984024,-0.1696891188621521,0.32351478934288025
1740113658167197000,6.453197021484375,0.1664460003376007,-0.22537793219089508,0.3636825382709503
1740113658177236000,6.463236083984375,0.2912289500236511,-0.3013131618499756,0.3618849217891693
1740113658187275300,6.473275146484375,0.4122683107852936,-0.3216903805732727,0.23944711685180664
1740113658197314000,6.48331396484375,0.425497829914093,-0.2638537287712097,0.004754452500492334
1740113658207353000,6.49335302734375,0.2922309339046478,-0.16312898695468903,-0.144318088889122
1740113658217391900,6.503391845703125,0.021402917802333832,-0.08535243570804596,-0.09607492387294769
1740113658227431200,6.51343115234375,-0.2215013951063156,-0.04683098569512367,0.17721006274223328
1740113658237470200,6.52347021484375,-0.31794536113739014,-0.11531337350606918,0.517980694770813
1740113658247509000,6.533509033203125,-0.20430441200733185,-0.2410469502210617,0.7022742033004761
1740113658257548000,6.543548095703125,0.06143379211425781,-0.30093076825141907,0.640407919883728
1740113658267587000,6.553587158203125,0.2833390235900879,-0.28560972213745117,0.3491899371147156
1740113658277626000,6.563626220703125,0.3179854154586792,-0.17992429435253143,0.014993048273026943
1740113658287665200,6.5736650390625,0.17326661944389343,-0.04616467282176018,-0.22917118668556213
1740113658297704000,6.583703857421875,-0.09417972713708878,0.05774201825261116,-0.36390209197998047
1740113658307743000,6.593742919921875,-0.3795989751815796,0.0781787857413292,-0.3580094277858734
1740113658317783000,6.603782958984375,-0.5708752274513245,0.007287032436579466,-0.2627926468849182
1740113658327822000,6.613822021484375,-0.6154552102088928,-0.10801336169242859,-0.1667514592409134
1740113658337861000,6.623861083984375,-0.5396291613578796,-0.17151616513729095,-0.1149231418967247
1740113658347900200,6.633900146484375,-0.4152962863445282,-0.2016201764345169,-0.0865306481719017
1740113658357939000,6.64393896484375,-0.2967645525932312,-0.21063204109668732,-0.07957926392555237
1740113658367978000,6.65397802734375,-0.18660083413124084,-0.1951868087053299,-0.07117307186126709
1740113658378017300,6.664017333984375,-0.08446488529443741,-0.1693730652332306,-0.05124863237142563
1740113658388056000,6.67405615234375,0.0055227032862603664,-0.14429283142089844,-0.012668518349528313
1740113658398095000,6.68409521484375,0.07936816662549973,-0.11791794747114182,0.03488381952047348
1740113658408134000,6.6941337890625,0.13146749138832092,-0.10683058202266693,0.06920845806598663
1740113658418173200,6.704173095703125,0.15731240808963776,-0.1022118553519249,0.0925593227148056
1740113658428212200,6.714212158203125,0.14828813076019287,-0.09126016497612,0.10597195476293564
1740113658438251000,6.7242509765625,0.10155364125967026,-0.07871188223361969,0.12127048522233963
1740113658448290000,6.7342900390625,0.05554448068141937,-0.0664684846997261,0.1285848617553711
1740113658458329000,6.7443291015625,0.018248505890369415,-0.05401873588562012,0.10105789452791214
1740113658468368100,6.7543681640625,-0.010169688612222672,-0.05447285622358322,0.02926173247396946
1740113658478407200,6.7644072265625,-0.02465249039232731,-0.04435523971915245,-0.0457315519452095
1740113658488447200,6.774447265625,-0.029316812753677368,-0.012666059657931328,-0.09212203323841095
1740113658498486000,6.784486083984375,-0.015799671411514282,0.018627680838108063,-0.10646501928567886
1740113658508525000,6.794525146484375,0.018403975293040276,0.006823534145951271,-0.0997338742017746
1740113658518564000,6.804564208984375,0.07387814670801163,-0.031189095228910446,-0.08056364208459854
1740113658528603100,6.81460302734375,0.12845845520496368,-0.07452250272035599,-0.061401546001434326
1740113658538642200,6.82464208984375,0.1636340171098709,-0.08125683665275574,-0.04053887724876404
1740113658548681000,6.834680908203125,0.180393248796463,-0.03675495460629463,-0.013492048718035221
1740113658558720000,6.844719970703125,0.17664271593093872,0.06476607918739319,0.0068750083446502686
1740113658568759000,6.854759033203125,0.1643509417772293,0.17491082847118378,0.020416878163814545
1740113658578798000,6.864798095703125,0.17361262440681458,0.2538200318813324,0.03917804732918739
1740113658588837000,6.874837158203125,0.19630339741706848,0.26918306946754456,0.07472528517246246
1740113658598876000,6.8848759765625,0.2137385904788971,0.24346014857292175,0.09497728943824768
1740113658608915200,6.894915283203125,0.22452953457832336,0.21687334775924683,0.10359904170036316
1740113658618954200,6.904954345703125,0.22601264715194702,0.20913900434970856,0.09369341284036636
1740113658628993000,6.914992919921875,0.2170872688293457,0.21475210785865784,0.06621963530778885
1740113658639032000,6.925031982421875,0.2108488231897354,0.23724010586738586,0.022496655583381653
1740113658649072000,6.935072021484375,0.20251651108264923,0.21881447732448578,-0.023129340261220932
1740113658659111000,6.94511083984375,0.19010059535503387,0.17465659976005554,-0.03170418739318848
1740113658669150200,6.955150146484375,0.20934151113033295,0.1381770372390747,-0.0007820733007974923
1740113658679189000,6.96518896484375,0.23214270174503326,0.1424761712551117,-0.021455394104123116
1740113658689228000,6.97522802734375,0.15888135135173798,0.21258001029491425,-0.13636073470115662
1740113658699267000,6.98526708984375,0.022706199437379837,0.33489498496055603,-0.22038720548152924
1740113658709306000,6.99530615234375,-0.10268327593803406,0.3629589080810547,-0.231778085231781
1740113658719345200,7.00534521484375,-0.15517392754554749,0.30081483721733093,-0.16991284489631653
1740113658729384200,7.01538427734375,-0.16542686522006989,0.19346098601818085,-0.09157299995422363
1740113658739423000,7.025423095703125,-0.1490580141544342,0.07482195645570755,-0.04379855468869209
1740113658749462000,7.0354619140625,-0.1057593822479248,0.016358232125639915,-0.029906323179602623
1740113658759501000,7.0455009765625,-0.09391283988952637,0.0032506859861314297,-0.04150572046637535
1740113658769540000,7.0555400390625,-0.12218500673770905,0.06194589287042618,-0.063062384724617
1740113658779579100,7.0655791015625,-0.15761038661003113,0.1511455476284027,-0.08713629841804504
1740113658789618000,7.075617919921875,-0.16819240152835846,0.22634777426719666,-0.10882563889026642
1740113658799657200,7.0856572265625,-0.131821870803833,0.2500683069229126,-0.13037966191768646
1740113658809697000,7.095697021484375,-0.036384113132953644,0.2378581315279007,-0.14824806153774261
1740113658819736000,7.105736083984375,0.057847313582897186,0.1986910104751587,-0.16604730486869812
1740113658829775000,7.115775146484375,0.11008007824420929,0.14385588467121124,-0.17703251540660858
1740113658839814100,7.125814208984375,0.08989571779966354,0.09699570387601852,-0.1591310054063797
1740113658849853000,7.13585302734375,-0.0023918943479657173,0.07169044762849808,-0.11421477794647217
1740113658859892200,7.145892333984375,-0.1350487321615219,0.07512699067592621,-0.047113776206970215
1740113658869931000,7.155930908203125,-0.2702796757221222,0.0860719308257103,0.022546270862221718
1740113658879970000,7.165969970703125,-0.3501555919647217,0.09034790098667145,0.08565572649240494
1740113658890009000,7.176009033203125,-0.37116023898124695,0.049188073724508286,0.13779380917549133
1740113658900048100,7.186048095703125,-0.3655678629875183,-0.004893803037703037,0.18650488555431366
1740113658910087200,7.196087158203125,-0.3246302008628845,-0.0506708025932312,0.22033080458641052
1740113658920126000,7.2061259765625,-0.25291258096694946,-0.08619896322488785,0.22554074227809906
1740113658930164500,7.21616455078125,-0.17507468163967133,-0.09991206228733063,0.2138914167881012
1740113658940203800,7.226203857421875,-0.09902198612689972,-0.10655930638313293,0.20032687485218048
1740113658950242600,7.23624267578125,-0.030359340831637383,-0.06059159338474274,0.18729154765605927
1740113658960281600,7.246281494140625,0.036118220537900925,-0.005836206953972578,0.14802217483520508
1740113658970320400,7.2563203125,0.1014057993888855,0.028022050857543945,0.08255800604820251
1740113658980360400,7.2663603515625,0.16355305910110474,0.04049043729901314,0.005664030555635691
1740113658990399500,7.2763994140625,0.2110254019498825,0.04482920840382576,-0.05404897779226303
1740113659000438800,7.286438720703125,0.24611841142177582,0.04575279355049133,-0.09215401858091354
1740113659010477600,7.2964775390625,0.27223700284957886,0.06068522483110428,-0.11828925460577011
1740113659020516600,7.3065166015625,0.28212717175483704,0.048998743295669556,-0.12533038854599
1740113659030555400,7.316555419921875,0.26323938369750977,0.030591823160648346,-0.10629677772521973
1740113659040594700,7.3265947265625,0.2201978862285614,0.016995586454868317,-0.09738051146268845
1740113659050633700,7.3366337890625,0.16795262694358826,0.014787275344133377,-0.12030071020126343
1740113659060672500,7.346672607421875,0.10438909381628036,0.018698658794164658,-0.1567777544260025
1740113659070711600,7.356711669921875,0.0343376100063324,0.018426984548568726,-0.16905122995376587
1740113659080750600,7.36675048828125,-0.013761742040514946,0.004322085529565811,-0.1299150139093399
1740113659090789600,7.37678955078125,-0.021180910989642143,-0.028401022776961327,-0.05209612473845482
1740113659100828700,7.38682861328125,0.0072723026387393475,-0.07005445659160614,0.05018976703286171
1740113659110867500,7.396867431640625,0.06346253305673599,-0.12245871871709824,0.15393701195716858
1740113659120906500,7.406906494140625,0.14187371730804443,-0.17411018908023834,0.2331221103668213
1740113659130945800,7.41694580078125,0.24589163064956665,-0.2233758270740509,0.289933979511261
1740113659140985600,7.426985595703125,0.3797871172428131,-0.2627895474433899,0.3208005428314209
1740113659151024600,7.437024658203125,0.502122700214386,-0.27174320816993713,0.22866728901863098
1740113659161063700,7.447063720703125,0.49832960963249207,-0.21847280859947205,0.0002511627972126007
1740113659171102500,7.4571025390625,0.35288870334625244,-0.11657213419675827,-0.19409789144992828
1740113659181141500,7.4671416015625,0.10224476456642151,-0.024536220356822014,-0.22786757349967957
1740113659191180500,7.4771806640625,-0.12517106533050537,0.012772871181368828,-0.03901871666312218
1740113659201219600,7.487219482421875,-0.2402622252702713,-0.037798427045345306,0.2599085867404938
1740113659211258600,7.497258544921875,-0.17825894057750702,-0.1497274488210678,0.44406595826148987
1740113659221297400,7.50729736328125,0.04206357151269913,-0.2321552187204361,0.39373353123664856
1740113659231336700,7.517336669921875,0.2500377595424652,-0.19486548006534576,0.11629627645015717
1740113659241375700,7.527375732421875,0.26035457849502563,-0.08281723409891129,-0.2007591724395752
1740113659251414500,7.53741455078125,0.09893548488616943,0.027687430381774902,-0.3831072151660919
1740113659261453600,7.54745361328125,-0.14978832006454468,0.10329723358154297,-0.4501166045665741
1740113659271492600,7.55749267578125,-0.3844192922115326,0.1195351779460907,-0.4251992702484131
1740113659281531600,7.56753173828125,-0.5583857297897339,0.05096517503261566,-0.32491421699523926
1740113659291570700,7.57757080078125,-0.6458630561828613,-0.05053534358739853,-0.222702294588089
1740113659301610500,7.587610595703125,-0.6287069916725159,-0.11014939844608307,-0.16340063512325287
1740113659311649500,7.5976494140625,-0.5414581894874573,-0.12946602702140808,-0.14768390357494354
1740113659321688600,7.6076884765625,-0.4324169158935547,-0.13304051756858826,-0.15732800960540771
1740113659331727600,7.6177275390625,-0.31283125281333923,-0.11853113025426865,-0.16923366487026215
1740113659341766700,7.6277666015625,-0.17861247062683105,-0.09180790185928345,-0.17988231778144836
1740113659351805700,7.6378056640625,-0.05619674175977707,-0.06358930468559265,-0.17175868153572083
1740113659361844500,7.647844482421875,0.019479377195239067,-0.04474664852023125,-0.13030259311199188
1740113659371883500,7.657883544921875,0.04472367465496063,-0.04971185326576233,-0.052796270698308945
1740113659381922600,7.667922607421875,0.05098476633429527,-0.07093165069818497,0.022467859089374542
1740113659391961600,7.677961669921875,0.06160299852490425,-0.0985882580280304,0.05855494737625122
1740113659402000600,7.688000732421875,0.062213923782110214,-0.09936802834272385,0.0466223880648613
1740113659412039400,7.698039306640625,0.04256289452314377,-0.08628995716571808,0.009183362126350403
1740113659422078700,7.70807861328125,-0.005151363089680672,-0.06137368828058243,-0.017336130142211914
1740113659432117500,7.718117431640625,-0.05668849125504494,-0.02398991957306862,-0.003984597511589527
1740113659442156500,7.728156494140625,-0.09271121025085449,-0.014692291617393494,0.05285205319523811
1740113659452195600,7.738195556640625,-0.11425233632326126,-0.03107474558055401,0.1283634752035141
1740113659462235600,7.748235595703125,-0.10464604943990707,-0.05474279448390007,0.18595246970653534
1740113659472274400,7.7582744140625,-0.06829776614904404,-0.07205425202846527,0.2098120003938675
1740113659482313700,7.768313720703125,-0.020211461931467056,-0.0852571353316307,0.2122650444507599
1740113659492352500,7.7783525390625,0.014905758202075958,-0.07353374361991882,0.2165805697441101
1740113659502391600,7.7883916015625,0.03553833067417145,-0.04347970336675644,0.23824219405651093
1740113659512430600,7.7984306640625,0.04712147265672684,-0.001399064902216196,0.25211450457572937
1740113659522469600,7.8084697265625,0.06813620775938034,0.04980446770787239,0.2350500077009201
1740113659532508700,7.8185087890625,0.1121789738535881,0.09716682136058807,0.19281913340091705
1740113659542547500,7.82854736328125,0.15131759643554688,0.12460536509752274,0.13631190359592438
1740113659552586500,7.83858642578125,0.18045003712177277,0.13374190032482147,0.0728229433298111
1740113659562625500,7.84862548828125,0.2060810923576355,0.14922338724136353,0.00307848141528666
1740113659572664600,7.85866455078125,0.20757469534873962,0.17305122315883636,-0.07592280954122543
1740113659582703600,7.86870361328125,0.185428649187088,0.1895202100276947,-0.1538170874118805
1740113659592742700,7.87874267578125,0.15897731482982635,0.18328708410263062,-0.19770263135433197
1740113659602781400,7.888781494140625,0.14460448920726776,0.1627328097820282,-0.19903315603733063
1740113659612820700,7.89882080078125,0.15008544921875,0.129155695438385,-0.16428478062152863
1740113659622860500,7.908860595703125,0.15906056761741638,0.07327564805746078,-0.08181840926408768
1740113659632899600,7.918899658203125,0.19629305601119995,0.03790655732154846,0.016353389248251915
1740113659642938600,7.928938720703125,0.2176138162612915,0.06926314532756805,-0.0006916396669112146
1740113659652977400,7.938977294921875,0.15927726030349731,0.1610778570175171,-0.12277786433696747
1740113659663016400,7.949016357421875,0.06652842462062836,0.24113355576992035,-0.22234518826007843
1740113659673055700,7.9590556640625,-0.015718422830104828,0.20906516909599304,-0.25189346075057983
1740113659683094500,7.969094482421875,-0.06128031387925148,0.13108648359775543,-0.21436846256256104
1740113659693133600,7.979133544921875,-0.10983946174383163,0.029592232778668404,-0.17650043964385986
1740113659703172600,7.989172607421875,-0.14578229188919067,-0.034616582095623016,-0.15976114571094513
1740113659713211600,7.999211669921875,-0.154441699385643,-0.025335151702165604,-0.17441530525684357
1740113659723250700,8.009250732421876,-0.18715250492095947,0.01874309405684471,-0.19621886312961578
1740113659733289500,8.01928955078125,-0.24671120941638947,0.08213148266077042,-0.19496037065982819
1740113659743328500,8.02932861328125,-0.29517993330955505,0.15019948780536652,-0.1791984587907791
1740113659753367600,8.039367431640626,-0.2991085648536682,0.18058910965919495,-0.17269892990589142
1740113659763406600,8.049406494140625,-0.2542601227760315,0.15486565232276917,-0.17993101477622986
1740113659773445600,8.059445556640625,-0.185466930270195,0.11152223497629166,-0.19038966298103333
1740113659783485700,8.069485595703124,-0.11760027706623077,0.07742365449666977,-0.20935669541358948
1740113659793524500,8.0795244140625,-0.07536442577838898,0.03815465047955513,-0.2202664613723755
1740113659803563500,8.0895634765625,-0.07587442547082901,0.031686365604400635,-0.1960095912218094
1740113659813602600,8.0996025390625,-0.13114868104457855,0.04136660695075989,-0.1322183907032013
1740113659823641600,8.1096416015625,-0.20329691469669342,0.03962010517716408,-0.05160823464393616
1740113659833680600,8.1196806640625,-0.24211323261260986,0.010904611088335514,0.023710299283266068
1740113659843719400,8.129719482421875,-0.24947820603847504,-0.020473018288612366,0.08430440723896027
1740113659853758500,8.139758544921875,-0.2265159785747528,-0.051896534860134125,0.12765130400657654
1740113659863797800,8.1497978515625,-0.17562244832515717,-0.07288943231105804,0.15034650266170502
1740113659873836500,8.15983642578125,-0.10686378180980682,-0.06948816031217575,0.15102124214172363
1740113659883875600,8.16987548828125,-0.04142192006111145,-0.07153266668319702,0.13612031936645508
1740113659893914400,8.179914306640624,0.010836200788617134,-0.05447741970419884,0.11315655708312988
1740113659903953700,8.18995361328125,0.06098858267068863,-0.06577695161104202,0.07863639295101166
1740113659913992700,8.19999267578125,0.1171489804983139,-0.07827277481555939,0.052634432911872864
1740113659924031500,8.210031494140624,0.17497527599334717,-0.05705137550830841,0.04425026848912239
1740113659934070800,8.22007080078125,0.22006872296333313,-0.03589089587330818,0.05637548863887787
1740113659944110600,8.230110595703126,0.24118733406066895,-0.034650128334760666,0.0884079858660698
1740113659954149600,8.240149658203125,0.25478243827819824,-0.02513859048485756,0.11471568793058395
1740113659964189000,8.25018896484375,0.2681874632835388,-0.01422495674341917,0.10919521749019623
1740113659974227700,8.260227783203124,0.28276297450065613,-0.013126195408403873,0.056408245116472244
1740113659984266800,8.270266845703125,0.2804092764854431,-0.015439150854945183,-0.01703587919473648
1740113659994305800,8.280305908203125,0.26104867458343506,-0.02377900667488575,-0.06769771873950958
1740113660004344600,8.290344482421874,0.23283778131008148,-0.020937947556376457,-0.08680164068937302
1740113660014383900,8.3003837890625,0.19418959319591522,-0.02498430386185646,-0.07981617003679276
1740113660024422700,8.310422607421875,0.1353779435157776,-0.0394308865070343,-0.04701827093958855
1740113660034461700,8.320461669921874,0.07016919553279877,-0.04896499589085579,0.0015145663637667894
1740113660044500700,8.330500732421875,0.006675700657069683,-0.03484544903039932,0.05459988862276077
1740113660054539800,8.340539794921876,-0.04777508229017258,-0.024662358686327934,0.10441716760396957
1740113660064578800,8.350578857421874,-0.08655524253845215,-0.033997271209955215,0.13857726752758026
1740113660074617600,8.36061767578125,-0.08057451993227005,-0.03609723225235939,0.15444712340831757
1740113660084656600,8.37065673828125,-0.006785515695810318,-0.03858329355716705,0.1475021243095398
1740113660094695700,8.38069580078125,0.13330310583114624,-0.05573765188455582,0.1344718486070633
1740113660104735700,8.39073583984375,0.3375409245491028,-0.10684504359960556,0.10834650695323944
1740113660114774800,8.40077490234375,0.49864405393600464,-0.13824930787086487,-0.04848012328147888
1740113660124813800,8.410813720703125,0.5037437677383423,-0.1275029182434082,-0.2790672481060028
1740113660134852600,8.4208525390625,0.36028677225112915,-0.06474265456199646,-0.36730703711509705
1740113660144891600,8.4308916015625,0.10213060677051544,-0.01931711658835411,-0.20271648466587067
1740113660154931000,8.440930908203125,-0.1565210223197937,-0.003992835991084576,0.2143494188785553
1740113660164969700,8.4509697265625,-0.28967800736427307,-0.05206475779414177,0.6425766348838806
1740113660175008800,8.4610087890625,-0.19246864318847656,-0.16344879567623138,0.8122690320014954
1740113660185047600,8.471047607421875,0.04961366951465607,-0.21066468954086304,0.627758264541626
1740113660195086600,8.481086669921876,0.21542631089687347,-0.15132179856300354,0.18998122215270996
1740113660205126000,8.4911259765625,0.19111697375774384,-0.0026875711046159267,-0.24741768836975098
1740113660215164700,8.50116455078125,0.03400130942463875,0.13745665550231934,-0.526134192943573
1740113660225203700,8.51120361328125,-0.19133087992668152,0.22165967524051666,-0.620197594165802
1740113660235242800,8.52124267578125,-0.4050486981868744,0.22123201191425323,-0.5292353630065918
1740113660245281800,8.53128173828125,-0.5563077330589294,0.13978296518325806,-0.3259413540363312
1740113660255320800,8.54132080078125,-0.6142928004264832,0.03561833128333092,-0.10205124318599701
1740113660265361000,8.55136083984375,-0.5626556873321533,-0.030658159404993057,0.06601845473051071
1740113660275399700,8.561399658203126,-0.44156137108802795,-0.06468575447797775,0.16869492828845978
1740113660285438700,8.571438720703124,-0.321597158908844,-0.09089605510234833,0.22369292378425598
1740113660295477500,8.5814775390625,-0.21615108847618103,-0.09504780918359756,0.23468546569347382
1740113660305516800,8.591516845703126,-0.11161935329437256,-0.07532630860805511,0.192680224776268
1740113660315555800,8.601555908203125,-0.01824827492237091,-0.03153303638100624,0.10796201974153519
1740113660325594600,8.6115947265625,0.04148855805397034,0.0028172126039862633,0.0399230532348156
1740113660335633700,8.621633544921876,0.06378117203712463,0.02444775402545929,-0.002153792418539524
1740113660345673000,8.6316728515625,0.05609608814120293,0.02746058814227581,-0.021370628848671913
1740113660355711700,8.641711669921875,0.01784258335828781,0.012524395249783993,-0.026892155408859253
1740113660365750800,8.651750732421876,-0.03769844025373459,-0.0034883935004472733,-0.020893651992082596
1740113660375789600,8.66178955078125,-0.08716010302305222,-0.008771580643951893,-0.003268630476668477
1740113660385828600,8.67182861328125,-0.11458267271518707,-0.009908217936754227,0.013546035625040531
1740113660395868000,8.681867919921874,-0.12574009597301483,0.0018825125880539417,0.013150939717888832
1740113660405906700,8.69190673828125,-0.11295772343873978,0.0059579480439424515,0.0016143914544954896
1740113660415945700,8.70194580078125,-0.08163677901029587,0.0008517414098605514,-0.015704981982707977
1740113660425985800,8.71198583984375,-0.0439344085752964,-0.012015321291983128,-0.03094465471804142
1740113660436024600,8.722024658203125,-0.025557946413755417,-0.028385793790221214,-0.03808923065662384
1740113660446063900,8.73206396484375,-0.003557307180017233,-0.0318383164703846,-0.026997961103916168
1740113660456103000,8.74210302734375,0.023532938212156296,-0.017943400889635086,-0.005416809115558863
1740113660466141700,8.7521416015625,0.047047849744558334,-0.012197896838188171,0.04147719591856003
1740113660476180700,8.7621806640625,0.05964278802275658,0.0024317586794495583,0.09561879932880402
1740113660486219500,8.772219482421875,0.0835782140493393,0.015912147238850594,0.15485095977783203
1740113660496258800,8.7822587890625,0.11341673135757446,0.045554015785455704,0.19966885447502136
1740113660506297900,8.7922978515625,0.14443562924861908,0.09310076385736465,0.21717967092990875
1740113660516336600,8.802336669921875,0.1716224104166031,0.1411248743534088,0.2125173807144165
1740113660526375700,8.812375732421875,0.18581652641296387,0.1657433956861496,0.19812273979187012
1740113660536414700,8.822414794921874,0.18516844511032104,0.18739987909793854,0.19048170745372772
1740113660546453800,8.832453857421875,0.19133047759532928,0.20499059557914734,0.1835678666830063
1740113660556492800,8.842492919921876,0.22092576324939728,0.21779441833496094,0.16667798161506653
1740113660566531600,8.852531494140624,0.24076524376869202,0.2074911743402481,0.12678755819797516
1740113660576571600,8.862571533203125,0.21563300490379333,0.18347541987895966,0.09716575592756271
1740113660586610700,8.872610595703126,0.18657870590686798,0.1345856487751007,0.09877616912126541
1740113660596649700,8.882649658203125,0.19595593214035034,0.08881295472383499,0.12770771980285645
1740113660606688800,8.892688720703125,0.1527107208967209,0.11427038162946701,0.06862176209688187
1740113660616727800,8.902727783203124,0.00678294850513339,0.23521122336387634,-0.047506168484687805
1740113660626766600,8.9127666015625,-0.12470956146717072,0.34589484333992004,-0.12285204976797104
1740113660636806000,8.922805908203125,-0.18429642915725708,0.3154488503932953,-0.12419619411230087
1740113660646844700,8.9328447265625,-0.19297035038471222,0.18560536205768585,-0.07894109934568405
1740113660656883700,8.9428837890625,-0.17788857221603394,0.02980099618434906,-0.059795405715703964
1740113660666922800,8.9529228515625,-0.1034872978925705,-0.07370409369468689,-0.10012339055538177
1740113660676961500,8.96296142578125,-0.03410007804632187,-0.08640379458665848,-0.21280880272388458
1740113660687000800,8.973000732421875,-0.06592431664466858,0.0030736273620277643,-0.34560415148735046
1740113660697040000,8.983039794921876,-0.1820436269044876,0.1341496855020523,-0.42808419466018677
1740113660707078700,8.99307861328125,-0.31549006700515747,0.2301127016544342,-0.4465058147907257
1740113660717117700,9.00311767578125,-0.3825948238372803,0.2649382948875427,-0.4162077307701111
1740113660727157800,9.01315771484375,-0.36275026202201843,0.23001600801944733,-0.36077937483787537
1740113660737196800,9.02319677734375,-0.28951385617256165,0.16800031065940857,-0.3301143944263458
1740113660747235800,9.03323583984375,-0.1897318810224533,0.10216271132230759,-0.31494849920272827
1740113660757274600,9.043274658203124,-0.11743152886629105,0.02836991846561432,-0.2827388048171997
1740113660767313700,9.053313720703125,-0.11888135224580765,-0.04103818163275719,-0.21791107952594757
1740113660777352700,9.063352783203126,-0.18776817619800568,-0.07226970046758652,-0.12645995616912842
1740113660787391700,9.073391845703124,-0.28279802203178406,-0.08679031580686569,-0.032209884375333786
1740113660797430800,9.0834306640625,-0.35962653160095215,-0.08412756025791168,0.05392104759812355
1740113660807469800,9.0934697265625,-0.3820069432258606,-0.11378265172243118,0.11548693478107452
1740113660817508600,9.103508544921874,-0.36988162994384766,-0.15244458615779877,0.15469034016132355
1740113660827548000,9.1135478515625,-0.3400520980358124,-0.16067321598529816,0.19406624138355255
1740113660837586700,9.123586669921876,-0.29204612970352173,-0.15635980665683746,0.22909654676914215
1740113660847625700,9.133625732421875,-0.21504347026348114,-0.18011946976184845,0.24685530364513397
1740113660857664800,9.143664794921875,-0.12194167077541351,-0.20901530981063843,0.256387323141098
1740113660867703600,9.15370361328125,-0.02876938320696354,-0.2275940626859665,0.24809451401233673
1740113660877742800,9.163742919921875,0.06114884838461876,-0.22444429993629456,0.20420463383197784
1740113660887783000,9.173782958984376,0.148275226354599,-0.2048993557691574,0.14900928735733032
1740113660897821700,9.18382177734375,0.22256112098693848,-0.18401426076889038,0.09568953514099121
1740113660907860700,9.19386083984375,0.2705124020576477,-0.1710103154182434,0.05656210333108902
1740113660917899800,9.203899658203126,0.30078616738319397,-0.17617793381214142,0.0390884093940258
1740113660927938800,9.213938720703124,0.32967615127563477,-0.1899760365486145,0.05639629438519478
1740113660937978400,9.223978271484375,0.35004159808158875,-0.18790729343891144,0.09693094342947006
1740113660948017400,9.234017333984376,0.34430062770843506,-0.17901340126991272,0.13160236179828644
1740113660958056200,9.24405615234375,0.3138198256492615,-0.16882739961147308,0.15000945329666138
1740113660968095200,9.25409521484375,0.2746604382991791,-0.180212140083313,0.1511775255203247
1740113660978134300,9.26413427734375,0.222074493765831,-0.19524800777435303,0.13553422689437866
1740113660988173300,9.27417333984375,0.15165677666664124,-0.19436463713645935,0.10978705435991287
1740113660998212400,9.28421240234375,0.07894555479288101,-0.15826159715652466,0.06805930286645889
1740113661008251400,9.29425146484375,0.023164313286542892,-0.14332765340805054,0.004174599889665842
1740113661018290200,9.304290283203125,-0.0006232601590454578,-0.13461287319660187,-0.05777445062994957
1740113661028329500,9.31432958984375,0.019558172672986984,-0.13934504985809326,-0.1009187251329422
1740113661038369500,9.32436962890625,0.08334247767925262,-0.14465473592281342,-0.11192966997623444
1740113661048408300,9.334408203125,0.18299874663352966,-0.16787883639335632,-0.0807642936706543
1740113661058447400,9.344447265625,0.3179417848587036,-0.22088401019573212,-0.020549800246953964
1740113661068486100,9.354486083984375,0.41683506965637207,-0.24362395703792572,-0.04985389485955238
1740113661078525200,9.364525146484375,0.3563069701194763,-0.19420070946216583,-0.19037902355194092
1740113661088564500,9.374564453125,0.17634627223014832,-0.10691241174936295,-0.28640782833099365
1740113661098603300,9.384603271484375,-0.06774316728115082,-0.04918576776981354,-0.23362429440021515
1740113661108642300,9.394642333984375,-0.28520891070365906,-0.017324509099125862,0.028870169073343277
1740113661118681300,9.404681396484374,-0.38856205344200134,-0.05227908492088318,0.39434412121772766
1740113661128720400,9.414720458984375,-0.2830406725406647,-0.13783445954322815,0.6410332918167114
1740113661138759400,9.424759521484376,-0.015341781079769135,-0.23926903307437897,0.6292535066604614
1740113661148798200,9.434798095703124,0.25044381618499756,-0.2630670368671417,0.3666170835494995
1740113661158837200,9.444837158203125,0.35555049777030945,-0.22207793593406677,0.057879526168107986
1740113661168876300,9.454876220703126,0.2624272108078003,-0.1555985063314438,-0.16407443583011627
1740113661178915300,9.464915283203124,0.03604622185230255,-0.09333977103233337,-0.2676970660686493
1740113661188954400,9.474954345703125,-0.2529251277446747,-0.042968206107616425,-0.2387777715921402
1740113661198994400,9.484994384765624,-0.5270479321479797,-0.02074264921247959,-0.10470157861709595
1740113661209033200,9.495033203125,-0.699255108833313,-0.06926251202821732,0.023177817463874817
1740113661219072300,9.505072265625,-0.7291699647903442,-0.12574753165245056,0.07896007597446442
1740113661229111600,9.515111572265624,-0.6509188413619995,-0.13967826962471008,0.0617467425763607
1740113661239150300,9.525150390625,-0.5209783911705017,-0.1636439710855484,0.008809870108962059
1740113661249189400,9.535189453125,-0.3725409507751465,-0.16796335577964783,-0.049751974642276764
1740113661259228200,9.545228271484374,-0.20070761442184448,-0.15183678269386292,-0.07882673293352127
1740113661269267200,9.55526708984375,-0.021259553730487823,-0.144997239112854,-0.06632878631353378
1740113661279306500,9.565306396484376,0.12399537861347198,-0.1491537094116211,-0.025278013199567795
1740113661289345300,9.57534521484375,0.20556001365184784,-0.15545448660850525,0.03282443806529045
1740113661299384300,9.58538427734375,0.23147399723529816,-0.16879311203956604,0.10303125530481339
1740113661309423000,9.595423095703126,0.1998462975025177,-0.16145052015781403,0.16279073059558868
1740113661319462400,9.60546240234375,0.14563122391700745,-0.14089274406433105,0.1984102725982666
1740113661329501400,9.61550146484375,0.08002424985170364,-0.10022681206464767,0.20244602859020233
1740113661339540200,9.625540283203126,0.027884487062692642,-0.0527239553630352,0.16569814085960388
1740113661349580300,9.635580322265625,0.0007721753790974617,-0.0326346680521965,0.09861577302217484
1740113661359619300,9.645619384765626,-0.014402097091078758,-0.012217161245644093,0.017445672303438187
1740113661369658000,9.655658203125,-0.02023974619805813,0.016080524772405624,-0.058074917644262314
1740113661379697400,9.665697509765625,-0.017093434929847717,0.02679985761642456,-0.10797103494405746
1740113661389736400,9.675736328125,-0.013215873390436172,0.033122468739748,-0.1275966763496399
1740113661399775200,9.685775146484374,-0.012874852865934372,0.036152660846710205,-0.11643748730421066
1740113661409814300,9.695814208984375,-0.005038767587393522,0.029598088935017586,-0.07320506870746613
1740113661419853300,9.705853271484376,0.022401565685868263,0.01242059376090765,-0.022448869422078133
1740113661429892400,9.715892333984375,0.05697232484817505,0.01581958495080471,0.02661374770104885
1740113661439931400,9.725931396484375,0.07907983660697937,0.05060723423957825,0.0668598935008049
1740113661449970200,9.73597021484375,0.08302770555019379,0.10469336807727814,0.09179161489009857
1740113661460009200,9.74600927734375,0.07133312523365021,0.14276568591594696,0.11397159099578857
1740113661470048500,9.756048583984375,0.056075602769851685,0.1886143982410431,0.14645709097385406
1740113661480087300,9.76608740234375,0.048651717603206635,0.23662671446800232,0.1807313710451126
1740113661490126300,9.776126220703125,0.06397102028131485,0.27665403485298157,0.1835484653711319
1740113661500166400,9.78616650390625,0.11311182379722595,0.29941484332084656,0.13600848615169525
1740113661510205200,9.796205078125,0.18801002204418182,0.3041249215602875,0.047529496252536774
1740113661520244500,9.806244384765625,0.28162312507629395,0.2723937928676605,-0.073086217045784
1740113661530283300,9.816283203125,0.3541282117366791,0.20240487158298492,-0.18136554956436157
1740113661540322300,9.826322265625,0.3871506452560425,0.10254944115877151,-0.21170176565647125
1740113661550361300,9.836361328125,0.3927680552005768,0.027679195627570152,-0.14055941998958588
1740113661560400100,9.846400146484376,0.4102458655834198,0.027077924460172653,-0.033324990421533585
1740113661570439400,9.856439453125,0.38622522354125977,0.08974742889404297,-0.046206701546907425
1740113661580478500,9.866478515625,0.27265626192092896,0.23769736289978027,-0.11927539110183716
1740113661590517200,9.876517333984374,0.13508695363998413,0.36193543672561646,-0.14978669583797455
1740113661600556300,9.886556396484375,0.04246475547552109,0.37500864267349243,-0.1278384029865265
1740113661610595300,9.89659521484375,0.018256887793540955,0.32008442282676697,-0.08785317093133926
1740113661620634400,9.90663427734375,0.012817862443625927,0.1965027004480362,-0.0665556788444519
1740113661630673400,9.91667333984375,-0.009432848542928696,0.08875040709972382,-0.07664772868156433
1740113661640712200,9.926712158203125,-0.05083184689283371,0.06323311477899551,-0.10248051583766937
1740113661650751200,9.936751220703124,-0.1195608451962471,0.09038536995649338,-0.12436344474554062
1740113661660791300,9.946791259765625,-0.2017713189125061,0.14076799154281616,-0.13118748366832733
1740113661670830300,9.956830322265626,-0.2537916600704193,0.2277633398771286,-0.1328258514404297
1740113661680869400,9.966869384765625,-0.23475685715675354,0.29149726033210754,-0.13510245084762573
1740113661690908400,9.976908447265625,-0.14932212233543396,0.2801612615585327,-0.14167140424251556
1740113661700947200,9.986947265625,-0.04928070306777954,0.2425764799118042,-0.15763388574123383
1740113661710986500,9.996986572265625,0.028151236474514008,0.20593085885047913,-0.18996839225292206
1740113661721025300,10.007025390625,0.0654868334531784,0.17046576738357544,-0.23699484765529633
1740113661731064300,10.017064208984374,0.0671561062335968,0.13250720500946045,-0.27640029788017273
1740113661741103400,10.027103271484375,0.028561148792505264,0.10031799226999283,-0.29634082317352295
1740113661751142100,10.03714208984375,-0.04525794833898544,0.06531073898077011,-0.2909125089645386
1740113661761181400,10.047181396484374,-0.1327221840620041,0.04869172349572182,-0.24400489032268524
1740113661771220200,10.05722021484375,-0.20686858892440796,0.06416308879852295,-0.15783937275409698
1740113661781259300,10.06725927734375,-0.24323433637619019,0.06887921690940857,-0.05202411115169525
1740113661791298300,10.07729833984375,-0.22747427225112915,0.05156201124191284,0.03992418944835663
1740113661801338400,10.08733837890625,-0.1603585034608841,0.01159459725022316,0.11713869869709015
1740113661811377400,10.09737744140625,-0.055920250713825226,-0.028223922476172447,0.18713350594043732
1740113661821416400,10.10741650390625,0.05946972593665123,-0.07425026595592499,0.26148122549057007
1740113661831455200,10.117455322265625,0.15240366756916046,-0.10432374477386475,0.33225128054618835
1740113661841494300,10.127494384765624,0.21732208132743835,-0.10783224552869797,0.37388020753860474
1740113661851533300,10.137533203125,0.2445497065782547,-0.10532141476869583,0.3623649477958679
1740113661861572400,10.147572265625,0.24027816951274872,-0.08356323093175888,0.3052935004234314
1740113661871611400,10.157611328125,0.2264273315668106,-0.06381721794605255,0.22298717498779297
1740113661881650200,10.167650146484375,0.22766122221946716,-0.03206412121653557,0.13896334171295166
1740113661891689200,10.177689208984376,0.2423216551542282,-0.0008758405456319451,0.055249009281396866
1740113661901728500,10.187728515625,0.24147620797157288,0.023713400587439537,-0.011853017844259739
1740113661911767300,10.197767333984375,0.2151615172624588,0.044089511036872864,-0.07471001148223877
1740113661921806300,10.207806396484376,0.18980658054351807,0.03774765878915787,-0.15400294959545135
1740113661931845400,10.217845458984375,0.19372835755348206,-0.0017707208171486855,-0.23146125674247742
1740113661941884400,10.227884521484375,0.21053005754947662,-0.04651254415512085,-0.2867412269115448
1740113661951924500,10.237924560546874,0.21590405702590942,-0.0732610672712326,-0.2946007549762726
1740113661961963500,10.247963623046875,0.191317617893219,-0.07422009110450745,-0.273428350687027
1740113661972002600,10.25800244140625,0.14110052585601807,-0.06556162238121033,-0.25037628412246704
1740113661982041600,10.26804150390625,0.07218030095100403,-0.06612561643123627,-0.24315966665744781
1740113661992080400,10.278080322265625,0.0002243579365313053,-0.07760170847177505,-0.24357831478118896
1740113662002119400,10.288119384765626,-0.049307845532894135,-0.09280134737491608,-0.22646263241767883
1740113662012158500,10.298158447265624,-0.04693523421883583,-0.08872991055250168,-0.19028013944625854
1740113662022197500,10.308197509765625,0.029735086485743523,-0.0941760465502739,-0.127839595079422
1740113662032236500,10.318236572265626,0.1813853234052658,-0.13521535694599152,-0.05210568383336067
1740113662042275300,10.328275390625,0.397469699382782,-0.21920610964298248,-0.02383979968726635
1740113662052314600,10.338314697265625,0.53248131275177,-0.2586534023284912,-0.1425587236881256
1740113662062353400,10.348353515625,0.5281920433044434,-0.243344247341156,-0.2667350471019745
1740113662072392400,10.358392333984375,0.37744247913360596,-0.21942585706710815,-0.2912411689758301
1740113662082431500,10.368431396484375,0.12954188883304596,-0.15506401658058167,-0.17440205812454224
1740113662092470500,10.378470458984374,-0.09730270504951477,-0.10202982276678085,0.10771937668323517
1740113662102510300,10.38851025390625,-0.2191193848848343,-0.08687223494052887,0.42176246643066406
1740113662112549600,10.398549560546876,-0.12040639668703079,-0.13740704953670502,0.6337429285049438
1740113662122588400,10.40858837890625,0.14315864443778992,-0.21403148770332336,0.655441403388977
1740113662132627500,10.41862744140625,0.3897269070148468,-0.19874708354473114,0.4917007088661194
1740113662142666500,10.42866650390625,0.47756361961364746,-0.12228337675333023,0.2591013014316559
1740113662152705500,10.43870556640625,0.39181384444236755,-0.04069025069475174,0.0287189781665802
1740113662162744600,10.44874462890625,0.21322008967399597,0.005064318887889385,-0.15206460654735565
1740113662172783400,10.458783447265626,-0.0056821685284376144,0.047603789716959,-0.24016757309436798
1740113662182822400,10.468822509765625,-0.2054811418056488,0.05595502257347107,-0.22111934423446655
1740113662192861400,10.478861328125,-0.3476840853691101,0.003795413300395012,-0.14008601009845734
1740113662202900500,10.488900390625,-0.39787474274635315,-0.059025682508945465,-0.05644804239273071
1740113662212939500,10.498939453125,-0.36340653896331787,-0.09847349673509598,-0.0014159467536956072
1740113662222978600,10.508978515625,-0.2774410843849182,-0.0947573259472847,0.02194191701710224
1740113662233017300,10.519017333984374,-0.18475909531116486,-0.07586060464382172,0.005097956396639347
1740113662243056600,10.529056640625,-0.09926040470600128,-0.0687149316072464,-0.038487110286951065
1740113662253096700,10.5390966796875,-0.01300833746790886,-0.07411769032478333,-0.06440871953964233
1740113662263135500,10.549135498046875,0.04930679500102997,-0.0728403627872467,-0.04777378588914871
1740113662273174500,10.559174560546875,0.06907837092876434,-0.07985939085483551,0.011668505147099495
1740113662283213300,10.56921337890625,0.05172371119260788,-0.09573591500520706,0.09298869967460632
1740113662293252400,10.57925244140625,0.00960768386721611,-0.08912435173988342,0.1639811098575592
1740113662303291600,10.589291748046875,-0.04449369013309479,-0.057340964674949646,0.206867516040802
1740113662313330400,10.599330322265626,-0.08006633073091507,-0.009707131423056126,0.19641141593456268
1740113662323369500,10.609369384765625,-0.07217251509428024,0.03741320222616196,0.1215384379029274
1740113662333408500,10.619408447265625,-0.04969010502099991,0.06088284030556679,0.02316526137292385
1740113662343447600,10.629447509765624,-0.04551345109939575,0.07840891182422638,-0.04660438373684883
1740113662353486600,10.639486572265625,-0.050825927406549454,0.08893638849258423,-0.0821264311671257
1740113662363525400,10.649525390625,-0.04398857057094574,0.09136602282524109,-0.09738709777593613
1740113662373564400,10.659564453125,-0.022946400567889214,0.09438817948102951,-0.10552652180194855
1740113662383603500,10.669603515625,-0.001658045221120119,0.10664073377847672,-0.08761235326528549
1740113662393642500,10.679642578125,0.01414488535374403,0.12438777089118958,-0.034314241260290146
1740113662403682600,10.6896826171875,0.03858247399330139,0.1428728848695755,0.03351312130689621
1740113662413721600,10.6997216796875,0.06947088241577148,0.20587129890918732,0.08177892118692398
1740113662423760400,10.709760498046874,0.08738072961568832,0.2686338424682617,0.07411278039216995
1740113662433799400,10.71979931640625,0.1065664142370224,0.32104697823524475,0.03588204085826874
1740113662443838700,10.729838623046875,0.12466828525066376,0.3667699098587036,-0.017274614423513412
1740113662453877500,10.73987744140625,0.15357555449008942,0.39609289169311523,-0.07188618928194046
1740113662463916500,10.74991650390625,0.1992480307817459,0.4148084819316864,-0.11784162372350693
1740113662473955300,10.759955322265625,0.2479122281074524,0.4167632460594177,-0.14102230966091156
1740113662483994400,10.769994384765624,0.2743377685546875,0.42175212502479553,-0.13479672372341156
1740113662494033700,10.78003369140625,0.2668953239917755,0.41113197803497314,-0.1049184501171112
1740113662504072400,10.790072509765626,0.22870919108390808,0.42030811309814453,-0.055627066642045975
1740113662514111500,10.800111572265624,0.19599013030529022,0.4451620578765869,0.02744198776781559
1740113662524150500,10.810150634765625,0.2057652324438095,0.46874934434890747,0.13318268954753876
1740113662534189600,10.820189453125,0.2535892128944397,0.5213188529014587,0.16700536012649536
1740113662544229600,10.830229736328125,0.2684697210788727,0.6002326011657715,0.06386611610651016
1740113662554268700,10.8402685546875,0.23557248711585999,0.6663277745246887,-0.06311552971601486
1740113662564307500,10.850307373046874,0.15603366494178772,0.728639543056488,-0.12444580346345901
1740113662574346500,10.860346435546875,0.04549437388777733,0.7600547075271606,-0.1294192522764206
1740113662584385300,10.87038525390625,-0.031605929136276245,0.7860484719276428,-0.07623814046382904
1740113662594424600,10.880424560546874,-0.05812249332666397,0.7486481070518494,0.021354997530579567
1740113662604463600,10.890463623046875,-0.05844451114535332,0.6884175539016724,0.13029269874095917
1740113662614502400,10.90050244140625,-0.06973178684711456,0.665213942527771,0.20837365090847015
1740113662624541400,10.91054150390625,-0.08132737874984741,0.6925418376922607,0.2034781575202942
1740113662634580500,10.92058056640625,-0.08893203735351562,0.7647861838340759,0.10027054697275162
1740113662644619500,10.93061962890625,-0.10927249491214752,0.832143247127533,-0.0731227770447731
1740113662654658600,10.940658447265625,-0.15545862913131714,0.9250303506851196,-0.24703091382980347
1740113662664697300,10.950697265625,-0.21101345121860504,0.9683294296264648,-0.3518589735031128
1740113662674736400,10.960736328125,-0.25936368107795715,0.962406575679779,-0.37227317690849304
1740113662684775700,10.970775634765625,-0.2881481945514679,0.8987285494804382,-0.31773123145103455
1740113662694814500,10.980814453125,-0.28371483087539673,0.8348931074142456,-0.22403322160243988
1740113662704854500,10.9908544921875,-0.2501831650733948,0.7819467782974243,-0.12404796481132507
1740113662714893600,11.0008935546875,-0.2010132372379303,0.7425234317779541,-0.038617487996816635
1740113662724932400,11.010932373046876,-0.1627979874610901,0.7406561970710754,0.03247057646512985
1740113662734971600,11.0209716796875,-0.13322758674621582,0.7656097412109375,0.07098734378814697
1740113662745010400,11.031010498046875,-0.10025204718112946,0.8036625981330872,0.07720529288053513
1740113662755049500,11.041049560546876,-0.0695515051484108,0.8405070304870605,0.061409130692481995
1740113662765088500,11.051088623046875,-0.04023822396993637,0.8787717819213867,0.038414064794778824
1740113662775127300,11.061127197265625,-0.019188066944479942,0.9054428339004517,0.03062857873737812
1740113662785166600,11.07116650390625,-0.011296607553958893,0.9133270382881165,0.04184330627322197
1740113662795205600,11.08120556640625,-0.009538654237985611,0.9161428213119507,0.028386617079377174
1740113662805244400,11.091244384765625,-0.01749338209629059,0.9137454628944397,0.016849005594849586
1740113662815283500,11.101283447265626,-0.02297922596335411,0.9120612740516663,-0.006506915669888258
1740113662825322500,11.111322509765625,-0.012935459613800049,0.9198769927024841,-0.05062822997570038
1740113662835362600,11.121362548828126,-0.0004526916891336441,0.9400634765625,-0.10914480686187744
1740113662845401600,11.131401611328124,0.01744898408651352,0.9777393937110901,-0.16422326862812042
1740113662855440400,11.1414404296875,0.028272069990634918,1.0130069255828857,-0.21197295188903809
1740113662865479400,11.1514794921875,0.02925306186079979,1.0285935401916504,-0.24448443949222565
1740113662875518500,11.1615185546875,0.015882927924394608,1.020946741104126,-0.233809694647789
1740113662885557500,11.1715576171875,0.0031257602386176586,0.9940565824508667,-0.1821042001247406
1740113662895596500,11.181596435546876,0.0034924778155982494,0.946363091468811,-0.12187547981739044
1740113662905635600,11.191635498046875,0.015274183824658394,0.9066020846366882,-0.0752311572432518
1740113662915674400,11.20167431640625,0.03786497935652733,0.8798983097076416,-0.025069724768400192
1740113662925713700,11.211713623046874,0.06347549706697464,0.8649507761001587,0.03106709197163582
1740113662935752200,11.221752197265625,0.08286730945110321,0.8612843751907349,0.10017425566911697
1740113662945791200,11.231791259765625,0.10193248093128204,0.8432627320289612,0.17965948581695557
1740113662955830300,11.241830322265624,0.12368198484182358,0.8223899602890015,0.24340730905532837
1740113662965869300,11.251869384765625,0.14360934495925903,0.8123067021369934,0.2602592706680298
1740113662975908400,11.261908447265625,0.16838392615318298,0.8046972155570984,0.2404666393995285
1740113662985948400,11.271948486328125,0.20307333767414093,0.7975017428398132,0.21840474009513855
1740113662995987200,11.2819873046875,0.27644315361976624,0.7847350835800171,0.2093646377325058
1740113663006026200,11.292026123046876,0.38966304063796997,0.7613442540168762,0.19802601635456085
1740113663016065300,11.302065185546875,0.5147067308425903,0.7363680601119995,0.14158885180950165
1740113663026104300,11.312104248046875,0.5659881830215454,0.7601586580276489,-0.01654217019677162
1740113663036143400,11.322143310546876,0.4717051088809967,0.8650230169296265,-0.2370617538690567
1740113663046182100,11.33218212890625,0.25672784447669983,0.9948546886444092,-0.4163634479045868
1740113663056221200,11.34222119140625,0.02435450628399849,1.0937175750732422,-0.42395293712615967
1740113663066260200,11.35226025390625,-0.15661630034446716,1.1426234245300293,-0.20609721541404724
1740113663076299300,11.36229931640625,-0.23597875237464905,1.0916975736618042,0.12335657328367233
1740113663086338300,11.37233837890625,-0.12670615315437317,0.9652273058891296,0.3949156105518341
1740113663096377000,11.382377197265624,0.13751031458377838,0.862760603427887,0.5162397027015686
1740113663106416000,11.392416015625,0.39323490858078003,0.8469977974891663,0.47100186347961426
1740113663116455400,11.402455322265626,0.49650081992149353,0.9005411863327026,0.3092488944530487
1740113663126494200,11.412494140625,0.42093297839164734,1.0201736688613892,0.10936718434095383
1740113663136534300,11.4225341796875,0.22625327110290527,1.1970852613449097,-0.07870685309171677
1740113663146573300,11.4325732421875,0.007630403619259596,1.368974208831787,-0.2170283943414688
1740113663156612000,11.442612060546875,-0.1538674235343933,1.4523801803588867,-0.2591792941093445
1740113663166651100,11.452651123046875,-0.25318875908851624,1.435661792755127,-0.18183250725269318
1740113663176690400,11.4626904296875,-0.2851956784725189,1.3453543186187744,-0.03360496088862419
1740113663186729200,11.472729248046875,-0.22880610823631287,1.251187801361084,0.11779672652482986
1740113663196768300,11.482768310546875,-0.11744256317615509,1.193215012550354,0.21759416162967682
1740113663206807000,11.49280712890625,-0.01473027653992176,1.1888360977172852,0.2555515170097351
1740113663216846300,11.502846435546875,0.04882046952843666,1.237539529800415,0.2445763647556305
1740113663226885400,11.512885498046876,0.07793791592121124,1.298871636390686,0.2173183411359787
1740113663236924200,11.522924072265624,0.09358584880828857,1.3395746946334839,0.20349813997745514
1740113663246963200,11.532963134765625,0.09553074836730957,1.3541948795318604,0.2152053862810135
1740113663257002200,11.543002197265626,0.079022616147995,1.366320252418518,0.23341183364391327
1740113663267041300,11.553041259765624,0.03889096528291702,1.380013108253479,0.24172867834568024
1740113663277080300,11.563080322265625,-0.011894982308149338,1.401525616645813,0.241109237074852
1740113663287120400,11.573120361328124,-0.04810012876987457,1.4173909425735474,0.2131260633468628
1740113663297159200,11.5831591796875,-0.056182555854320526,1.435049295425415,0.15875869989395142
1740113663307198200,11.5931982421875,-0.045327890664339066,1.4535462856292725,0.09092996269464493
1740113663317237200,11.6032373046875,-0.028917759656906128,1.482811689376831,0.027741404250264168
1740113663327276300,11.6132763671875,-0.014703398570418358,1.5195966958999634,-0.014279542490839958
1740113663337315300,11.6233154296875,-0.009305436164140701,1.5489962100982666,-0.036704957485198975
1740113663347354000,11.63335400390625,0.0022627278231084347,1.5649173259735107,-0.03199028596282005
1740113663357393200,11.64339306640625,0.024379482492804527,1.568884015083313,-0.026904447004199028
1740113663367432400,11.653432373046876,0.04849280044436455,1.576682209968567,-0.026596056297421455
1740113663377471200,11.66347119140625,0.07132674753665924,1.5993592739105225,-0.01759830117225647
1740113663387510300,11.67351025390625,0.09364470839500427,1.6307092905044556,-0.007704388815909624
1740113663397549000,11.683549072265626,0.1109110414981842,1.656224250793457,-0.005959752015769482
1740113663407588400,11.69358837890625,0.12079675495624542,1.6875784397125244,-0.01740647479891777
1740113663417627400,11.70362744140625,0.11886303126811981,1.7205286026000977,-0.033922865986824036
1740113663427666200,11.713666259765626,0.11042975634336472,1.7576431035995483,-0.06956836581230164
1740113663437706200,11.723706298828125,0.10310366004705429,1.7831684350967407,-0.11065427958965302
1740113663447745300,11.733745361328126,0.10914373397827148,1.805661678314209,-0.1482018083333969
1740113663457784000,11.7437841796875,0.13418330252170563,1.8007068634033203,-0.17653492093086243
1740113663467823400,11.7538232421875,0.14785094559192657,1.7723757028579712,-0.17729943990707397
1740113663477862400,11.7638623046875,0.13039472699165344,1.7397786378860474,-0.12267348170280457
1740113663487901200,11.773901123046874,0.09408953040838242,1.7117013931274414,-0.021052761003375053
1740113663497940200,11.783940185546875,0.05639194697141647,1.6840440034866333,0.08528272807598114
1740113663507979300,11.793979248046876,0.04275725036859512,1.6572190523147583,0.13955168426036835
1740113663518018300,11.804018310546875,0.0392642505466938,1.6334588527679443,0.10123198479413986
1740113663528057300,11.814057373046875,0.017544889822602272,1.6667083501815796,-0.014565115794539452
1740113663538096000,11.82409619140625,-0.05599457398056984,1.7359166145324707,-0.14274892210960388
1740113663548135200,11.83413525390625,-0.16119414567947388,1.7894984483718872,-0.2129635065793991
1740113663558174200,11.84417431640625,-0.23767054080963135,1.7876079082489014,-0.18201836943626404
1740113663568213200,11.854213134765626,-0.26751261949539185,1.7344934940338135,-0.0716664046049118
1740113663578253300,11.86425341796875,-0.2636326551437378,1.6462401151657104,0.07547163963317871
1740113663588292000,11.8742919921875,-0.21720612049102783,1.5761005878448486,0.23554502427577972
1740113663598331100,11.8843310546875,-0.14968380331993103,1.5746209621429443,0.3605106472969055
1740113663608370400,11.894370361328125,-0.06635482609272003,1.61794912815094,0.40859588980674744
1740113663618409200,11.9044091796875,0.039662424474954605,1.6516884565353394,0.3668833374977112
1740113663628448300,11.9144482421875,0.157193124294281,1.681396484375,0.27505266666412354
1740113663638487300,11.9244873046875,0.25020644068717957,1.7195851802825928,0.16409152746200562
1740113663648526000,11.934526123046876,0.2863457500934601,1.7553768157958984,0.03821554780006409
1740113663658565400,11.9445654296875,0.2541569173336029,1.7740486860275269,-0.11185837537050247
1740113663668604200,11.954604248046875,0.16282062232494354,1.7956855297088623,-0.2807234525680542
1740113663678643200,11.964643310546874,0.042222294956445694,1.806969165802002,-0.4280007779598236
1740113663688682200,11.97468212890625,-0.09202338755130768,1.8161442279815674,-0.49463361501693726
1740113663698721300,11.98472119140625,-0.23202922940254211,1.8195799589157104,-0.46779292821884155
1740113663708760300,11.99476025390625,-0.3312416672706604,1.8159124851226807,-0.3740098476409912
1740113663718799400,12.00479931640625,-0.3563225269317627,1.8066505193710327,-0.2669942080974579
1740113663728839200,12.014839111328126,-0.3304221034049988,1.7820144891738892,-0.16680821776390076
1740113663738878200,12.024878173828125,-0.29806390404701233,1.7644962072372437,-0.08348509669303894
1740113663748917200,12.034917236328125,-0.27358683943748474,1.752569317817688,-0.00924343429505825
1740113663758956300,12.044956298828126,-0.24621246755123138,1.7558364868164062,0.063545823097229
1740113663768995300,12.054995361328125,-0.2198179066181183,1.7537776231765747,0.1334259957075119
1740113663779034000,12.0650341796875,-0.20199176669120789,1.7373660802841187,0.20641843974590302
1740113663789073200,12.0750732421875,-0.18252721428871155,1.7320365905761719,0.2684873640537262
1740113663799112200,12.0851123046875,-0.15046009421348572,1.725319504737854,0.2924763262271881
1740113663809151200,12.095151123046875,-0.11788642406463623,1.7151117324829102,0.2777237594127655
1740113663819190300,12.105190185546874,-0.07883090525865555,1.717227578163147,0.23159965872764587
1740113663829229300,12.115229248046875,-0.0355275459587574,1.7179844379425049,0.16102780401706696
1740113663839268000,12.12526806640625,0.011571522802114487,1.7043495178222656,0.07080123573541641
1740113663849307400,12.135307373046874,0.04976113513112068,1.6864538192749023,-0.009971272200345993
1740113663859346200,12.14534619140625,0.0665702074766159,1.6769601106643677,-0.06488379091024399
1740113663869385200,12.15538525390625,0.06141940504312515,1.6594737768173218,-0.09103059768676758
1740113663879425300,12.16542529296875,0.05397959426045418,1.637863278388977,-0.10597012937068939
1740113663889464000,12.175464111328125,0.042844008654356,1.6031514406204224,-0.09906230866909027
1740113663899503000,12.185503173828126,0.033358894288539886,1.569311261177063,-0.07909099757671356
1740113663909542400,12.19554248046875,0.036728039383888245,1.540165901184082,-0.0592028871178627
1740113663919581200,12.205581298828125,0.06840953230857849,1.5157809257507324,-0.03742968291044235
1740113663929620200,12.2156201171875,0.10718066245317459,1.4999128580093384,-0.02243836410343647
1740113663939659000,12.225658935546875,0.14423587918281555,1.4909541606903076,-0.009443470276892185
1740113663949698000,12.235697998046875,0.17660032212734222,1.4712146520614624,0.019963299855589867
